GYR_X,GYR_Y,GYR_Z,DATE,UNIX_TIMESTAMP
-0.05459476262331009,-0.18535587191581726,0.1237037405371666,2023-05-16T16:00:18.723528Z,1684252818723
-0.11957584321498871,-0.066046342253685,0.2227732539176941,2023-05-16T16:00:18.742769Z,1684252818742
-0.15472954511642456,-0.14700637757778168,0.30905961990356445,2023-05-16T16:00:18.766720Z,1684252818766
-0.1579253375530243,-0.3249054253101349,0.30373328924179077,2023-05-16T16:00:18.786197Z,1684252818786
-0.16538217663764954,-0.37816858291625977,0.2941459119319916,2023-05-16T16:00:18.802596Z,1684252818802
-0.1675127148628235,-0.27590328454971313,0.3356912136077881,2023-05-16T16:00:18.822772Z,1684252818822
-0.1525990217924118,-0.2354232668876648,0.3356912136077881,2023-05-16T16:00:18.843227Z,1684252818843
-0.14514216780662537,-0.2311622053384781,0.29095011949539185,2023-05-16T16:00:18.870876Z,1684252818870
-0.16964323818683624,-0.2119874656200409,0.23342590034008026,2023-05-16T16:00:18.885886Z,1684252818885
-0.18242639303207397,-0.14700637757778168,0.21957746148109436,2023-05-16T16:00:18.905161Z,1684252818905
-0.15046848356723785,-0.20879167318344116,0.22490379214286804,2023-05-16T16:00:18.922716Z,1684252818922
-0.10892320424318314,-0.2961432933807373,0.1897500902414322,2023-05-16T16:00:18.945889Z,1684252818945
-0.12596742808818817,-0.3579285740852356,0.16418376564979553,2023-05-16T16:00:18.970905Z,1684252818970
-0.17070849239826202,-0.3153180480003357,0.1705753356218338,2023-05-16T16:00:18.986249Z,1684252818986
-0.16857796907424927,-0.19387798011302948,0.2312953621149063,2023-05-16T16:00:19.003183Z,1684252819003
-0.1579253375530243,-0.1406148076057434,0.20892482995986938,2023-05-16T16:00:19.023181Z,1684252819023
-0.1813611388206482,-0.066046342253685,0.13542163372039795,2023-05-16T16:00:19.045237Z,1684252819045
-0.21012325584888458,-0.03621896356344223,0.13968269526958466,2023-05-16T16:00:19.065098Z,1684252819065
-0.20373167097568512,-0.07350318878889084,0.13542163372039795,2023-05-16T16:00:19.084579Z,1684252819084
-0.2090579867362976,-0.030892645940184593,0.10346373170614243,2023-05-16T16:00:19.102894Z,1684252819102
-0.23142851889133453,0.0330231711268425,0.1002679392695427,2023-05-16T16:00:19.123160Z,1684252819123
-0.23995064198970795,0.05752423778176308,0.10985531657934189,2023-05-16T16:00:19.145372Z,1684252819145
-0.22716747224330902,0.0703074038028717,0.10239847004413605,2023-05-16T16:00:19.169455Z,1684252819169
-0.18242639303207397,0.066046342253685,0.1002679392695427,2023-05-16T16:00:19.182973Z,1684252819182
-0.13768532872200012,0.025566328316926956,0.09387636184692383,2023-05-16T16:00:19.203486Z,1684252819203
-0.08868319541215897,0.03515370190143585,0.10665952414274216,2023-05-16T16:00:19.223255Z,1684252819223
-0.09081372618675232,-0.03621896356344223,0.12263847887516022,2023-05-16T16:00:19.245222Z,1684252819245
-0.07696529477834702,-0.14807164669036865,0.20040272176265717,2023-05-16T16:00:19.270041Z,1684252819269
-0.03435475379228592,-0.3334275186061859,0.2451438009738922,2023-05-16T16:00:19.284306Z,1684252819284
0.04980107396841049,-0.43995389342308044,0.23342590034008026,2023-05-16T16:00:19.303389Z,1684252819303
0.05832318589091301,-0.35473278164863586,0.20999009907245636,2023-05-16T16:00:19.325471Z,1684252819325
0.04660528525710106,-0.15659375488758087,0.1897500902414322,2023-05-16T16:00:19.345309Z,1684252819345
0.040213704109191895,-0.012783164158463478,0.20466378331184387,2023-05-16T16:00:19.369159Z,1684252819369
0.02210422046482563,-0.09693899005651474,0.2589922249317169,2023-05-16T16:00:19.385961Z,1684252819385
0.030626330524683,-0.3067959249019623,0.26218801736831665,2023-05-16T16:00:19.403502Z,1684252819403
-0.016245270147919655,-0.4804339110851288,0.29095011949539185,2023-05-16T16:00:19.425726Z,1684252819425
-0.03435475379228592,-0.6466150283813477,0.44115230441093445,2023-05-16T16:00:19.443905Z,1684252819443
0.07856319099664688,-1.0908299684524536,0.6062681674957275,2023-05-16T16:00:19.469616Z,1684252819469
0.23409168422222137,-1.398691177368164,0.6052029132843018,2023-05-16T16:00:19.484176Z,1684252819484
0.24900537729263306,-1.1600720882415771,0.4986765384674072,2023-05-16T16:00:19.504039Z,1684252819503
0.14567480981349945,-0.7201182246208191,0.49335023760795593,2023-05-16T16:00:19.523779Z,1684252819523
0.0636495053768158,-0.5720465779304504,0.6201165914535522,2023-05-16T16:00:19.543625Z,1684252819543
0.012516847811639309,-0.5826992392539978,0.6936197876930237,2023-05-16T16:00:19.569899Z,1684252819569
-0.09827057272195816,-0.33662331104278564,0.4539354741573334,2023-05-16T16:00:19.584981Z,1684252819584
-0.3688475489616394,0.3611243665218353,0.18761955201625824,2023-05-16T16:00:19.603563Z,1684252819603
-0.6926876902580261,0.9044088125228882,0.20572903752326965,2023-05-16T16:00:19.624302Z,1684252819624
-0.8823046088218689,0.8255793452262878,0.20572903752326965,2023-05-16T16:00:19.644729Z,1684252819644
-1.0048099756240845,0.40799596905708313,0.022503694519400597,2023-05-16T16:00:19.672298Z,1684252819672
-1.019723653793335,0.09161267429590225,-0.08082687854766846,2023-05-16T16:00:19.685118Z,1684252819685
-0.8791088461875916,-0.02024000883102417,-0.04993423447012901,2023-05-16T16:00:19.704071Z,1684252819703
-0.58403080701828,-0.22903168201446533,0.08428898453712463,2023-05-16T16:00:19.725376Z,1684252819725
-0.35393384099006653,-0.5944170951843262,0.13435637950897217,2023-05-16T16:00:19.743981Z,1684252819743
-0.10785794258117676,-0.6966823935508728,0.11518163233995438,2023-05-16T16:00:19.769132Z,1684252819769
-0.03861580789089203,-0.6711161136627197,0.2131858915090561,2023-05-16T16:00:19.788050Z,1684252819787
-0.05352949723601341,-0.8852340579032898,0.31332066655158997,2023-05-16T16:00:19.806016Z,1684252819805
-0.04287686198949814,-1.1835079193115234,0.302668035030365,2023-05-16T16:00:19.824014Z,1684252819823
-0.0492684431374073,-1.30707848072052,0.28988486528396606,2023-05-16T16:00:19.844004Z,1684252819843
0.011451584286987782,-1.1291794776916504,0.33675646781921387,2023-05-16T16:00:19.869401Z,1684252819869
0.10839057713747025,-0.9448888301849365,0.34314805269241333,2023-05-16T16:00:19.885415Z,1684252819885
0.18828535079956055,-0.7147918939590454,0.3356912136077881,2023-05-16T16:00:19.905941Z,1684252819905
0.09986846894025803,-0.6018739342689514,0.3623228073120117,2023-05-16T16:00:19.924606Z,1684252819924
0.023169483989477158,-0.590156078338623,0.34740909934043884,2023-05-16T16:00:19.946019Z,1684252819945
-0.05992107838392258,-0.7158571481704712,0.367649108171463,2023-05-16T16:00:19.967340Z,1684252819967
-0.12809795141220093,-1.0620678663253784,0.3495396375656128,2023-05-16T16:00:19.988156Z,1684252819988
-0.23462431132793427,-1.0556762218475342,0.16418376564979553,2023-05-16T16:00:20.004302Z,1684252820004
-0.41784965991973877,-0.7360971570014954,-0.05099949613213539,2023-05-16T16:00:20.024501Z,1684252820024
-0.48922231793403625,-0.18002955615520477,-0.2288985252380371,2023-05-16T16:00:20.044744Z,1684252820044
-0.4498075842857361,0.36858120560646057,-0.3556649088859558,2023-05-16T16:00:20.068550Z,1684252820068
-0.2900180220603943,0.6434192657470703,-0.3886880576610565,2023-05-16T16:00:20.084130Z,1684252820084
-0.02263685315847397,0.5496760606765747,-0.27470487356185913,2023-05-16T16:00:20.104539Z,1684252820104
0.2788327634334564,0.47191178798675537,-0.1394163817167282,2023-05-16T16:00:20.124414Z,1684252820124
0.6346307992935181,0.7510108947753906,-0.022237379103899002,2023-05-16T16:00:20.144460Z,1684252820144
1.0831067562103271,1.3251879215240479,0.31332066655158997,2023-05-16T16:00:20.167915Z,1684252820167
1.450622797012329,2.1656808853149414,0.885367214679718,2023-05-16T16:00:20.186241Z,1684252820186
1.6476964950561523,2.8602328300476074,1.5458307266235352,2023-05-16T16:00:20.204736Z,1684252820204
1.8319871425628662,3.1435930728912354,2.300037384033203,2023-05-16T16:00:20.224971Z,1684252820224
1.853292465209961,2.912430763244629,3.0925934314727783,2023-05-16T16:00:20.244485Z,1684252820244
1.6764585971832275,1.9973692893981934,3.516568422317505,2023-05-16T16:00:20.267133Z,1684252820267
1.6093471050262451,1.01413094997406,3.5815494060516357,2023-05-16T16:00:20.284975Z,1684252820284
1.517734408378601,0.3717769980430603,3.683814764022827,2023-05-16T16:00:20.304670Z,1684252820304
1.4484922885894775,0.07669898122549057,3.8254950046539307,2023-05-16T16:00:20.326135Z,1684252820326
1.2460922002792358,-0.10120004415512085,3.926694869995117,2023-05-16T16:00:20.345132Z,1684252820344
1.078845739364624,-0.2119874656200409,4.019372940063477,2023-05-16T16:00:20.367797Z,1684252820367
0.9499488472938538,-0.19068218767642975,4.235621452331543,2023-05-16T16:00:20.386328Z,1684252820386
0.7741803526878357,-0.2950780391693115,4.668118476867676,2023-05-16T16:00:20.405365Z,1684252820405
0.5206475853919983,-0.6306360960006714,4.999415397644043,2023-05-16T16:00:20.424951Z,1684252820424
0.2607232630252838,-0.7733814120292664,5.129377365112305,2023-05-16T16:00:20.445054Z,1684252820444
0.08495477586984634,-0.40586546063423157,5.339234352111816,2023-05-16T16:00:20.467967Z,1684252820467
-0.016245270147919655,-0.188551664352417,5.434042930603027,2023-05-16T16:00:20.484890Z,1684252820484
-0.28682222962379456,-1.05674147605896,5.499023914337158,2023-05-16T16:00:20.505187Z,1684252820505
-0.38056543469429016,-2.5363926887512207,5.337103843688965,2023-05-16T16:00:20.525973Z,1684252820525
-0.2527337968349457,-2.6173527240753174,5.023916721343994,2023-05-16T16:00:20.545132Z,1684252820545
-0.16538217663764954,-1.0375667810440063,5.00261116027832,2023-05-16T16:00:20.568691Z,1684252820568
-0.3795001804828644,0.433562308549881,5.167726993560791,2023-05-16T16:00:20.586393Z,1684252820586
-0.6404897570610046,0.4090612530708313,5.337103843688965,2023-05-16T16:00:20.605484Z,1684252820605
-0.8812393546104431,-1.3379710912704468,5.576788425445557,2023-05-16T16:00:20.625241Z,1684252820625
-0.9089362025260925,-2.9742159843444824,5.227381706237793,2023-05-16T16:00:20.647049Z,1684252820646
-0.8301066756248474,-2.201900005340576,4.280362606048584,2023-05-16T16:00:20.669734Z,1684252820669
-0.923849880695343,0.6295707821846008,3.907520294189453,2023-05-16T16:00:20.688912Z,1684252820688
-1.3179974555969238,1.5307838916778564,4.33895206451416,2023-05-16T16:00:20.707243Z,1684252820707
-1.4554164409637451,1.2314447164535522,4.7043375968933105,2023-05-16T16:00:20.725452Z,1684252820725
-1.255146861076355,0.06498108059167862,4.59674596786499,2023-05-16T16:00:20.745287Z,1684252820745
-1.1219888925552368,-1.7022912502288818,3.653987407684326,2023-05-16T16:00:20.777884Z,1684252820777
-1.086835265159607,-2.6919212341308594,2.351170063018799,2023-05-16T16:00:20.786830Z,1684252820786
-1.0761826038360596,-2.3094916343688965,1.6406391859054565,2023-05-16T16:00:20.805339Z,1684252820805
-1.0633994340896606,-1.5211964845657349,1.446761131286621,2023-05-16T16:00:20.825223Z,1684252820825
-1.2519510984420776,-1.4998911619186401,1.338104248046875,2023-05-16T16:00:20.846773Z,1684252820846
-1.5544859170913696,-1.7321187257766724,0.7671229839324951,2023-05-16T16:00:20.869673Z,1684252820869
-1.9390461444854736,-1.4998911619186401,0.10772478580474854,2023-05-16T16:00:20.885723Z,1684252820885
-2.518549680709839,-1.6447670459747314,-0.7114629745483398,2023-05-16T16:00:20.906994Z,1684252820906
-3.2290804386138916,-1.9185397624969482,-1.3090758323669434,2023-05-16T16:00:20.925722Z,1684252820925
-4.042942047119141,0.03621896356344223,-1.9887140989303589,2023-05-16T16:00:20.945482Z,1684252820945
-5.129510879516602,2.2658157348632812,-2.7280070781707764,2023-05-16T16:00:20.967962Z,1684252820967
-6.245906829833984,2.5321316719055176,-3.538672685623169,2023-05-16T16:00:20.986118Z,1684252820986
-7.152446269989014,2.4437148571014404,-4.506997108459473,2023-05-16T16:00:21.006923Z,1684252821006
-7.999330997467041,2.261554718017578,-5.745898723602295,2023-05-16T16:00:21.026963Z,1684252821026
-8.774843215942383,3.14998459815979,-7.028476238250732,2023-05-16T16:00:21.045605Z,1684252821045
-9.255276679992676,4.350536823272705,-8.224767684936523,2023-05-16T16:00:21.070228Z,1684252821070
-9.439567565917969,5.432844638824463,-9.295357704162598,2023-05-16T16:00:21.085761Z,1684252821085
-9.049680709838867,6.157223701477051,-10.340380668640137,2023-05-16T16:00:21.107284Z,1684252821107
-8.431828498840332,6.579068183898926,-11.269290924072266,2023-05-16T16:00:21.125729Z,1684252821125
-7.898130893707275,7.107439041137695,-12.022432327270508,2023-05-16T16:00:21.145786Z,1684252821145
-7.336737155914307,7.675224304199219,-12.5145845413208,2023-05-16T16:00:21.168653Z,1684252821168
-6.1020965576171875,8.314382553100586,-12.861860275268555,2023-05-16T16:00:21.186005Z,1684252821185
-4.367847442626953,7.735944747924805,-12.458125114440918,2023-05-16T16:00:21.205765Z,1684252821205
-2.8029749393463135,5.9803900718688965,-10.717484474182129,2023-05-16T16:00:21.227711Z,1684252821227
-1.4447637796401978,3.9265618324279785,-9.183505058288574,2023-05-16T16:00:21.245967Z,1684252821245
-0.3549990952014923,2.545980215072632,-8.259921073913574,2023-05-16T16:00:21.268123Z,1684252821268
0.19148114323616028,2.337188482284546,-7.493996620178223,2023-05-16T16:00:21.285919Z,1684252821285
0.5067991614341736,2.6716811656951904,-6.586391925811768,2023-05-16T16:00:21.305929Z,1684252821305
0.9520793557167053,2.9688897132873535,-5.586109161376953,2023-05-16T16:00:21.328616Z,1684252821328
1.3281174898147583,2.8016433715820312,-4.46225643157959,2023-05-16T16:00:21.346340Z,1684252821346
1.4644712209701538,2.5065653324127197,-3.5099105834960938,2023-05-16T16:00:21.379160Z,1684252821379
1.220525860786438,1.9217356443405151,-2.651308059692383,2023-05-16T16:00:21.387703Z,1684252821387
0.7624624371528625,0.8639287948608398,-1.858751893043518,2023-05-16T16:00:21.407772Z,1684252821407
0.4684496819972992,0.054328445345163345,-1.2590084075927734,2023-05-16T16:00:21.428890Z,1684252821428
0.2372874766588211,-0.5763076543807983,-0.9266462326049805,2023-05-16T16:00:21.462133Z,1684252821461
-0.1483379602432251,-1.0013477802276611,-0.5836313366889954,2023-05-16T16:00:21.466909Z,1684252821466
-0.44661179184913635,-1.2378363609313965,-0.17989639937877655,2023-05-16T16:00:21.492134Z,1684252821492
-0.6831002831459045,-1.2303794622421265,0.15885743498802185,2023-05-16T16:00:21.506148Z,1684252821506
-0.7310371994972229,-1.1771162748336792,0.4304996728897095,2023-05-16T16:00:21.527593Z,1684252821527
-0.7789740562438965,-0.9534109830856323,0.6243776679039001,2023-05-16T16:00:21.546748Z,1684252821546
-0.7416898012161255,-0.8319709300994873,0.7948198318481445,2023-05-16T16:00:21.581189Z,1684252821581
-0.60533607006073,-0.8980172276496887,0.9865673184394836,2023-05-16T16:00:21.586559Z,1684252821586
-0.6831002831459045,-1.1643331050872803,1.3817801475524902,2023-05-16T16:00:21.612317Z,1684252821612
-0.748081386089325,-1.1920300722122192,1.6651402711868286,2023-05-16T16:00:21.626480Z,1684252821626
-0.8354330062866211,-0.808535099029541,1.6459654569625854,2023-05-16T16:00:21.648231Z,1684252821648
-0.7331677079200745,-0.6934866309165955,1.6246602535247803,2023-05-16T16:00:21.682596Z,1684252821682
-0.6181192398071289,-0.7488803267478943,1.8963024616241455,2023-05-16T16:00:21.686538Z,1684252821686
-0.8226498365402222,-1.123853087425232,2.6600964069366455,2023-05-16T16:00:21.707532Z,1684252821707
-0.8588688373565674,-1.5606112480163574,3.247056722640991,2023-05-16T16:00:21.726435Z,1684252821726
-0.8759130239486694,-1.6735291481018066,3.2960588932037354,2023-05-16T16:00:21.746589Z,1684252821746
-0.6831002831459045,-1.9920430183410645,3.550656795501709,2023-05-16T16:00:21.771308Z,1684252821771
-0.2942790687084198,-1.897234559059143,4.006589889526367,2023-05-16T16:00:21.786909Z,1684252821786
-0.2623211741447449,-1.7193355560302734,4.417781352996826,2023-05-16T16:00:21.806610Z,1684252821806
-0.2878875136375427,-1.7789902687072754,4.6840972900390625,2023-05-16T16:00:21.828531Z,1684252821828
-0.6277065873146057,-1.2165310382843018,4.920586109161377,2023-05-16T16:00:21.846794Z,1684252821846
-1.1006836891174316,-0.11398320645093918,5.039895534515381,2023-05-16T16:00:21.872705Z,1684252821872
-1.0570077896118164,0.9725856781005859,4.776775360107422,2023-05-16T16:00:21.886866Z,1684252821886
-0.969656229019165,1.4572806358337402,4.412455081939697,2023-05-16T16:00:21.906854Z,1684252821906
-0.6937529444694519,1.743836522102356,4.574375152587891,2023-05-16T16:00:21.926876Z,1684252821926
-0.416784405708313,2.127331495285034,4.926977634429932,2023-05-16T16:00:21.947210Z,1684252821947
-0.13555480539798737,2.375537872314453,5.080375671386719,2023-05-16T16:00:21.968728Z,1684252821968
0.21598219871520996,2.158224105834961,5.1506829261779785,2023-05-16T16:00:21.986983Z,1684252821986
0.571780264377594,1.7768597602844238,5.215663909912109,2023-05-16T16:00:22.006786Z,1684252822006
0.8657930493354797,1.448758602142334,5.213533401489258,2023-05-16T16:00:22.027035Z,1684252822026
0.9893636107444763,1.458345890045166,5.391432285308838,2023-05-16T16:00:22.046965Z,1684252822046
0.9957551956176758,1.374190092086792,5.477718830108643,2023-05-16T16:00:22.071132Z,1684252822071
1.1108036041259766,0.8277098536491394,5.470262050628662,2023-05-16T16:00:22.088787Z,1684252822088
1.5379743576049805,0.1502021700143814,5.411672592163086,2023-05-16T16:00:22.107027Z,1684252822106
1.7222650051116943,-0.6732466220855713,5.114463806152344,2023-05-16T16:00:22.126912Z,1684252822126
1.7925723791122437,-1.252750039100647,4.984501838684082,2023-05-16T16:00:22.147064Z,1684252822146
1.761679768562317,-1.265533208847046,5.0516133308410645,2023-05-16T16:00:22.168659Z,1684252822168
1.736113429069519,-0.27590328454971313,5.156009197235107,2023-05-16T16:00:22.187806Z,1684252822187
1.4357091188430786,1.235705852508545,5.45108699798584,2023-05-16T16:00:22.207164Z,1684252822207
1.0575405359268188,2.4096262454986572,5.898498058319092,2023-05-16T16:00:22.227478Z,1684252822227
0.5494097471237183,2.80696964263916,6.090245246887207,2023-05-16T16:00:22.268732Z,1684252822268
0.20746009051799774,2.381929397583008,5.8793230056762695,2023-05-16T16:00:22.271859Z,1684252822271
0.02636527456343174,1.168594241142273,5.674792766571045,2023-05-16T16:00:22.288395Z,1684252822288
-0.1153147891163826,-0.18961693346500397,5.511807441711426,2023-05-16T16:00:22.307771Z,1684252822307
-0.060986343771219254,-0.7158571481704712,5.345625877380371,2023-05-16T16:00:22.329962Z,1684252822329
0.15206637978553772,-0.09054741263389587,5.341364860534668,2023-05-16T16:00:22.364561Z,1684252822364
0.10626004636287689,0.8554067015647888,5.535243034362793,2023-05-16T16:00:22.368816Z,1684252822368
0.08388951420783997,0.5305013060569763,5.484110355377197,2023-05-16T16:00:22.392406Z,1684252822392
0.14674006402492523,-1.0791120529174805,5.009002685546875,2023-05-16T16:00:22.407302Z,1684252822407
0.32996541261672974,-2.396843194961548,4.574375152587891,2023-05-16T16:00:22.428034Z,1684252822427
0.6538055539131165,-2.598177909851074,4.312320232391357,2023-05-16T16:00:22.460766Z,1684252822460
1.031974196434021,-1.9707376956939697,3.9693055152893066,2023-05-16T16:00:22.467367Z,1684252822467
1.1001510620117188,-0.9693899154663086,4.136551856994629,2023-05-16T16:00:22.499583Z,1684252822499
0.8295740485191345,-0.3526022732257843,4.481697082519531,2023-05-16T16:00:22.507342Z,1684252822507
0.517451822757721,-0.8064045906066895,4.35919189453125,2023-05-16T16:00:22.527642Z,1684252822527
0.40346860885620117,-1.8951040506362915,3.8904759883880615,2023-05-16T16:00:22.561280Z,1684252822561
0.46099284291267395,-2.0176093578338623,3.435608386993408,2023-05-16T16:00:22.567506Z,1684252822567
0.5419528484344482,-1.148354172706604,3.0435914993286133,2023-05-16T16:00:22.596692Z,1684252822596
0.45992758870124817,-0.44421494007110596,3.149052381515503,2023-05-16T16:00:22.609485Z,1684252822609
0.4780370593070984,0.2024000883102417,3.2800798416137695,2023-05-16T16:00:22.627486Z,1684252822627
0.27776750922203064,0.5486107468605042,3.138399839401245,2023-05-16T16:00:22.647693Z,1684252822647
0.08495477586984634,-0.2631201148033142,2.8678228855133057,2023-05-16T16:00:22.683140Z,1684252822683
-0.11851058155298233,-2.0165441036224365,2.3682141304016113,2023-05-16T16:00:22.687590Z,1684252822687
-0.2751043438911438,-2.9092350006103516,2.0731360912323,2023-05-16T16:00:22.710331Z,1684252822710
-0.4956139028072357,-2.5971126556396484,2.0006983280181885,2023-05-16T16:00:22.727771Z,1684252822727
-0.9792435765266418,-1.1973563432693481,2.226534128189087,2023-05-16T16:00:22.748024Z,1684252822747
-1.8495639562606812,0.16405059397220612,2.5951154232025146,2023-05-16T16:00:22.782610Z,1684252822782
-2.8764781951904297,0.574177086353302,2.5024373531341553,2023-05-16T16:00:22.788559Z,1684252822788
-3.8842175006866455,0.43569281697273254,1.8302561044692993,2023-05-16T16:00:22.808982Z,1684252822808
-5.092226505279541,0.6562023758888245,0.6360955238342285,2023-05-16T16:00:22.827792Z,1684252822827
-7.184404373168945,2.010152578353882,-0.7998798489570618,2023-05-16T16:00:22.865862Z,1684252822865
-9.296822547912598,4.280229091644287,-2.4595606327056885,2023-05-16T16:00:22.868095Z,1684252822868
-10.49311351776123,5.1569414138793945,-4.53256368637085,2023-05-16T16:00:22.896040Z,1684252822895
-11.073681831359863,4.141745090484619,-6.518215179443359,2023-05-16T16:00:22.908381Z,1684252822908
-11.788474082946777,3.675159454345703,-7.852990627288818,2023-05-16T16:00:22.928141Z,1684252822928
-12.34880256652832,4.797947406768799,-8.615718841552734,2023-05-16T16:00:22.972347Z,1684252822972
-12.075029373168945,6.465085029602051,-9.700157165527344,2023-05-16T16:00:22.973571Z,1684252822973
-11.265429496765137,7.316230773925781,-10.87301254272461,2023-05-16T16:00:22.989338Z,1684252822989
-9.752755165100098,7.768967628479004,-11.902057647705078,2023-05-16T16:00:23.010301Z,1684252823010
-7.922632217407227,7.5079779624938965,-12.686091423034668,2023-05-16T16:00:23.030352Z,1684252823030
-6.49730920791626,6.697312355041504,-13.227245330810547,2023-05-16T16:00:23.063776Z,1684252823063
-5.304214000701904,4.932170867919922,-12.137480735778809,2023-05-16T16:00:23.068081Z,1684252823068
-4.296474456787109,4.436822891235352,-10.230658531188965,2023-05-16T16:00:23.097791Z,1684252823097
-2.8072359561920166,3.5057826042175293,-9.484973907470703,2023-05-16T16:00:23.108252Z,1684252823108
-1.7579513788223267,1.9036260843276978,-8.732897758483887,2023-05-16T16:00:23.130629Z,1684252823130
-1.2029489278793335,1.5286533832550049,-7.703853607177734,2023-05-16T16:00:23.166759Z,1684252823166
-0.7448856234550476,1.7491629123687744,-6.411688804626465,2023-05-16T16:00:23.171974Z,1684252823171
-0.40080544352531433,2.648245334625244,-5.066260814666748,2023-05-16T16:00:23.189690Z,1684252823189
0.011451584286987782,2.3084263801574707,-4.17463493347168,2023-05-16T16:00:23.209916Z,1684252823209
0.1573926955461502,1.4689985513687134,-3.7048537731170654,2023-05-16T16:00:23.228551Z,1684252823228
0.09880319982767105,0.6775076985359192,-2.981539726257324,2023-05-16T16:00:23.269408Z,1684252823269
-0.016245270147919655,0.35579806566238403,-2.594849109649658,2023-05-16T16:00:23.271204Z,1684252823271
-0.16431692242622375,0.5486107468605042,-2.1868531703948975,2023-05-16T16:00:23.293714Z,1684252823293
-0.3091927766799927,0.3430148959159851,-1.4528864622116089,2023-05-16T16:00:23.308418Z,1684252823308
-0.3166496157646179,0.005326318088918924,-0.8840356469154358,2023-05-16T16:00:23.328576Z,1684252823328
-0.3645864725112915,-0.28016433119773865,-0.6219807863235474,2023-05-16T16:00:23.362589Z,1684252823362
-0.4306328296661377,-0.26631590723991394,-0.41105860471725464,2023-05-16T16:00:23.372532Z,1684252823372
-0.6330329179763794,0.08309056609869003,0.01717737689614296,2023-05-16T16:00:23.390592Z,1684252823390
-0.7406245470046997,0.42077913880348206,0.45073968172073364,2023-05-16T16:00:23.410405Z,1684252823410
-0.7885614037513733,0.3952127993106842,0.8491482734680176,2023-05-16T16:00:23.428737Z,1684252823428
-0.7161234617233276,-0.07137266546487808,1.1058768033981323,2023-05-16T16:00:23.453448Z,1684252823453
-0.5904223918914795,-0.8213182687759399,1.3050811290740967,2023-05-16T16:00:23.468908Z,1684252823468
-0.3986749053001404,-1.5467628240585327,1.5191991329193115,2023-05-16T16:00:23.489085Z,1684252823489
-0.23462431132793427,-2.307361125946045,1.8600834608078003,2023-05-16T16:00:23.510709Z,1684252823510
-0.026897907257080078,-2.7611634731292725,2.172205686569214,2023-05-16T16:00:23.530216Z,1684252823530
0.2095906287431717,-2.4788684844970703,2.479001760482788,2023-05-16T16:00:23.552997Z,1684252823552
0.17550218105316162,-1.6980302333831787,3.0904629230499268,2023-05-16T16:00:23.569135Z,1684252823569
0.05832318589091301,-1.1078741550445557,3.763709545135498,2023-05-16T16:00:23.590147Z,1684252823590
-0.31984540820121765,-0.7041392922401428,4.577570915222168,2023-05-16T16:00:23.609041Z,1684252823608
-0.6639255881309509,0.0021305272821336985,5.193293571472168,2023-05-16T16:00:23.630459Z,1684252823630
-0.793887734413147,0.9289098978042603,5.211402893066406,2023-05-16T16:00:23.653358Z,1684252823653
-0.9131972789764404,0.9246488213539124,5.401020050048828,2023-05-16T16:00:23.669268Z,1684252823669
-0.696948766708374,0.15126743912696838,6.080657958984375,2023-05-16T16:00:23.689255Z,1684252823689
-0.2996053993701935,-0.10226531326770782,6.29477596282959,2023-05-16T16:00:23.709314Z,1684252823709
0.2894853949546814,0.2588590681552887,6.045504093170166,2023-05-16T16:00:23.729845Z,1684252823729
0.8008119463920593,0.2961432933807373,5.91660737991333,2023-05-16T16:00:23.753304Z,1684252823753
1.0628668069839478,0.05326318368315697,5.992240905761719,2023-05-16T16:00:23.770800Z,1684252823770
1.4197300672531128,-0.009587372653186321,5.942173957824707,2023-05-16T16:00:23.790631Z,1684252823790
1.904425024986267,0.47723811864852905,5.578918933868408,2023-05-16T16:00:23.809428Z,1684252823809
1.9321218729019165,1.7907081842422485,5.296624183654785,2023-05-16T16:00:23.829185Z,1684252823829
1.5379743576049805,3.0051088333129883,5.375453472137451,2023-05-16T16:00:23.853444Z,1684252823853
1.0831067562103271,3.606982707977295,5.560809135437012,2023-05-16T16:00:23.872389Z,1684252823872
0.7081339955329895,3.414170026779175,5.671597003936768,2023-05-16T16:00:23.889384Z,1684252823889
0.5121254920959473,2.8506455421447754,5.722729206085205,2023-05-16T16:00:23.909947Z,1684252823909
0.38642439246177673,2.0570240020751953,5.624725341796875,2023-05-16T16:00:23.929319Z,1684252823929
0.3310306668281555,1.454084873199463,5.55867862701416,2023-05-16T16:00:23.961546Z,1684252823961
0.3821633458137512,1.2793816328048706,5.5522871017456055,2023-05-16T16:00:23.969720Z,1684252823969
0.513190746307373,1.1643331050872803,5.536308288574219,2023-05-16T16:00:23.998239Z,1684252823998
0.5813676118850708,1.0908299684524536,5.428716659545898,2023-05-16T16:00:24.009930Z,1684252824009
0.5462139248847961,0.8522109389305115,5.295558929443359,2023-05-16T16:00:24.029811Z,1684252824029
0.4908202290534973,0.498543381690979,5.272122859954834,2023-05-16T16:00:24.060264Z,1684252824060
0.5707150101661682,0.2119874656200409,5.291297435760498,2023-05-16T16:00:24.074341Z,1684252824074
0.7486140131950378,-0.0074568456038832664,5.17305326461792,2023-05-16T16:00:24.089729Z,1684252824089
0.7848330140113831,-0.3621896505355835,5.0612006187438965,2023-05-16T16:00:24.111553Z,1684252824111
0.7379614114761353,-0.519848644733429,5.148552417755127,2023-05-16T16:00:24.129779Z,1684252824129
0.72304767370224,-0.2215748429298401,5.167726993560791,2023-05-16T16:00:24.167348Z,1684252824167
0.7741803526878357,0.16831165552139282,5.02285099029541,2023-05-16T16:00:24.169709Z,1684252824169
0.6687192320823669,0.12889690697193146,4.998350143432617,2023-05-16T16:00:24.192209Z,1684252824192
0.47058022022247314,-0.5422192215919495,5.059070110321045,2023-05-16T16:00:24.211249Z,1684252824211
0.6058686971664429,-1.5073480606079102,4.925912380218506,2023-05-16T16:00:24.232462Z,1684252824232
0.9510141015052795,-2.1901819705963135,4.702207088470459,2023-05-16T16:00:24.271054Z,1684252824270
1.0841721296310425,-2.316948413848877,4.582897186279297,2023-05-16T16:00:24.272576Z,1684252824272
1.031974196434021,-2.5608937740325928,4.425238132476807,2023-05-16T16:00:24.293166Z,1684252824293
1.061801552772522,-2.9731507301330566,3.997002363204956,2023-05-16T16:00:24.310982Z,1684252824310
1.163001537322998,-2.6865949630737305,3.179945230484009,2023-05-16T16:00:24.332169Z,1684252824332
0.9552751779556274,-1.6074827909469604,2.7943196296691895,2023-05-16T16:00:24.362747Z,1684252824362
0.36724963784217834,-0.6913561224937439,2.8944544792175293,2023-05-16T16:00:24.371334Z,1684252824371
-0.416784405708313,-1.2740553617477417,2.9519786834716797,2023-05-16T16:00:24.389896Z,1684252824389
-1.1912310123443604,-2.9092350006103516,2.3628878593444824,2023-05-16T16:00:24.410331Z,1684252824410
-2.467417001724243,-3.175550937652588,1.756752848625183,2023-05-16T16:00:24.430119Z,1684252824429
-4.564920902252197,-1.35714590549469,1.7876455783843994,2023-05-16T16:00:24.467364Z,1684252824467
-7.167360305786133,0.9651288390159607,2.0006983280181885,2023-05-16T16:00:24.472096Z,1684252824472
-9.553550720214844,2.341449499130249,0.9492830634117126,2023-05-16T16:00:24.490101Z,1684252824490
-11.28993034362793,2.952910900115967,-1.4624738693237305,2023-05-16T16:00:24.510006Z,1684252824509
-12.287016868591309,3.1329402923583984,-3.9232327938079834,2023-05-16T16:00:24.530233Z,1684252824530
-13.207405090332031,3.3960604667663574,-5.7682695388793945,2023-05-16T16:00:24.564513Z,1684252824564
-14.034049987792969,4.824579238891602,-7.33953332901001,2023-05-16T16:00:24.572221Z,1684252824572
-13.76134204864502,6.900777816772461,-9.66074275970459,2023-05-16T16:00:24.595068Z,1684252824595
-12.382890701293945,8.248336791992188,-13.208070755004883,2023-05-16T16:00:24.610321Z,1684252824610
-10.986330032348633,7.829687595367432,-15.743398666381836,2023-05-16T16:00:24.630446Z,1684252824630
-10.424936294555664,7.3343400955200195,-14.61847972869873,2023-05-16T16:00:24.664455Z,1684252824664
-9.3671293258667,10.010282516479492,-12.251463890075684,2023-05-16T16:00:24.670351Z,1684252824670
-6.309823036193848,10.993520736694336,-10.531063079833984,2023-05-16T16:00:24.693820Z,1684252824693
-2.343846321105957,8.330361366271973,-9.006670951843262,2023-05-16T16:00:24.711587Z,1684252824711
0.5941507816314697,4.673311710357666,-7.277748107910156,2023-05-16T16:00:24.732199Z,1684252824732
1.937448263168335,1.6809860467910767,-6.438320159912109,2023-05-16T16:00:24.765807Z,1684252824765
2.2431788444519043,0.31811434030532837,-6.059352874755859,2023-05-16T16:00:24.771640Z,1684252824771
1.8745976686477661,-0.1495363861322403,-5.205011367797852,2023-05-16T16:00:24.790484Z,1684252824790
1.4474269151687622,0.5024049878120422,-4.352800369262695,2023-05-16T16:00:24.810513Z,1684252824810
1.1640667915344238,0.9466199278831482,-3.596463203430176,2023-05-16T16:00:24.832020Z,1684252824831
0.7709845304489136,0.6323671340942383,-2.741056442260742,2023-05-16T16:00:24.860523Z,1684252824860
0.0966726765036583,0.5237102508544922,-1.9879151582717896,2023-05-16T16:00:24.872758Z,1684252824872
-0.5627255439758301,0.8443545699119568,-1.4606095552444458,2023-05-16T16:00:24.890805Z,1684252824890
-0.9590035676956177,1.4164011478424072,-1.1250516176223755,2023-05-16T16:00:24.910748Z,1684252824910
-1.1667300462722778,1.6955002546310425,-0.6765755414962769,2023-05-16T16:00:24.934791Z,1684252824934
-1.230645775794983,1.479251742362976,-0.06298371404409409,2023-05-16T16:00:24.958952Z,1684252824958
-1.2945616245269775,1.0190578699111938,0.3801659643650055,2023-05-16T16:00:24.970592Z,1684252824970
-1.3819133043289185,0.5503418445587158,0.5761744976043701,2023-05-16T16:00:24.991162Z,1684252824991
-1.4628733396530151,-0.012117373757064342,0.5250418186187744,2023-05-16T16:00:25.010839Z,1684252825010
-1.3691301345825195,-0.9697893857955933,0.5463470816612244,2023-05-16T16:00:25.030863Z,1684252825030
-1.0719215869903564,-1.7783244848251343,0.6763092279434204,2023-05-16T16:00:25.063296Z,1684252825063
-0.9291762113571167,-2.188451051712036,0.9703220129013062,2023-05-16T16:00:25.071722Z,1684252825071
-0.8173235058784485,-2.263019561767578,1.4901707172393799,2023-05-16T16:00:25.093109Z,1684252825093
-0.6383592486381531,-1.9817898273468018,2.0611519813537598,2023-05-16T16:00:25.110722Z,1684252825110
-0.622380256652832,-1.6568844318389893,2.7407901287078857,2023-05-16T16:00:25.131446Z,1684252825131
-0.8269109129905701,-1.5109432935714722,3.3735568523406982,2023-05-16T16:00:25.153609Z,1684252825153
-0.9930920004844666,-1.3032169342041016,3.7890095710754395,2023-05-16T16:00:25.172675Z,1684252825172
-1.1986879110336304,-0.7716503739356995,4.199136257171631,2023-05-16T16:00:25.191251Z,1684252825191
-1.572595477104187,-0.27843329310417175,4.658264636993408,2023-05-16T16:00:25.210934Z,1684252825210
-1.942241907119751,-0.04833633825182915,5.1631999015808105,2023-05-16T16:00:25.232433Z,1684252825232
-2.001896619796753,0.2360890507698059,5.5648040771484375,2023-05-16T16:00:25.252147Z,1684252825252
-1.61946702003479,-0.20386482775211334,5.677721977233887,2023-05-16T16:00:25.271299Z,1684252825271
-0.8631298542022705,-0.9740504622459412,5.742702960968018,2023-05-16T16:00:25.291052Z,1684252825290
7.989477599039674E-4,-0.9559409618377686,5.308075428009033,2023-05-16T16:00:25.312001Z,1684252825311
0.6367613673210144,-0.0270310640335083,4.779704570770264,2023-05-16T16:00:25.331286Z,1684252825331
1.0394309759140015,0.7985482811927795,4.669982433319092,2023-05-16T16:00:25.354326Z,1684252825354
1.2535489797592163,0.8145272135734558,4.961864948272705,2023-05-16T16:00:25.371426Z,1684252825371
1.4836459159851074,0.4587291479110718,5.210071086883545,2023-05-16T16:00:25.391169Z,1684252825391
1.9086861610412598,0.2595248520374298,5.021519660949707,2023-05-16T16:00:25.411431Z,1684252825411
2.076997756958008,0.4917523264884949,4.646546840667725,2023-05-16T16:00:25.433329Z,1684252825433
1.8511618375778198,1.1724557876586914,4.716854095458984,2023-05-16T16:00:25.452498Z,1684252825452
1.5731281042099,1.6997612714767456,4.869186878204346,2023-05-16T16:00:25.472553Z,1684252825472
1.334509015083313,1.8414413928985596,4.972517490386963,2023-05-16T16:00:25.492313Z,1684252825492
1.1981552839279175,1.7317192554473877,5.069456577301025,2023-05-16T16:00:25.511355Z,1684252825511
1.1715236902236938,1.253415822982788,5.104610443115234,2023-05-16T16:00:25.532563Z,1684252825532
1.3004206418991089,0.7016092538833618,4.946951389312744,2023-05-16T16:00:25.552248Z,1684252825552
1.2823110818862915,0.6483460664749146,4.822315216064453,2023-05-16T16:00:25.573214Z,1684252825573
1.1502183675765991,0.6994787454605103,4.907536506652832,2023-05-16T16:00:25.591471Z,1684252825591
1.0500836372375488,0.5599291920661926,5.022584915161133,2023-05-16T16:00:25.611551Z,1684252825611
1.1203910112380981,0.314918577671051,4.858534336090088,2023-05-16T16:00:25.631712Z,1684252825631
1.1970900297164917,0.21158799529075623,4.585826873779297,2023-05-16T16:00:25.653158Z,1684252825653
1.1789805889129639,0.44061967730522156,4.555999279022217,2023-05-16T16:00:25.672154Z,1684252825672
1.0426267385482788,0.5822997093200684,4.541085720062256,2023-05-16T16:00:25.694643Z,1684252825694
0.936100423336029,0.4235754609107971,4.373839378356934,2023-05-16T16:00:25.711792Z,1684252825711
0.8988161683082581,0.14873743057250977,4.1309590339660645,2023-05-16T16:00:25.731593Z,1684252825731
0.957405686378479,0.0294279083609581,3.936016082763672,2023-05-16T16:00:25.759354Z,1684252825759
0.9307740926742554,0.2733732759952545,3.875295877456665,2023-05-16T16:00:25.772348Z,1684252825772
0.7997466921806335,0.6387587189674377,3.79646635055542,2023-05-16T16:00:25.792666Z,1684252825792
0.6165213584899902,0.9519461989402771,3.692070722579956,2023-05-16T16:00:25.814828Z,1684252825814
0.4119907021522522,0.9988178014755249,3.6995275020599365,2023-05-16T16:00:25.851085Z,1684252825850
0.31079065799713135,0.7175882458686829,3.7293548583984375,2023-05-16T16:00:25.852688Z,1684252825852
0.36618438363075256,0.2893522381782532,3.513106346130371,2023-05-16T16:00:25.873680Z,1684252825873
0.3885549008846283,-0.3657849133014679,3.181809425354004,2023-05-16T16:00:25.893612Z,1684252825893
0.2713759243488312,-0.6193176507949829,3.1200239658355713,2023-05-16T16:00:25.912283Z,1684252825912
0.08602003753185272,-0.47231125831604004,3.1434597969055176,2023-05-16T16:00:25.932087Z,1684252825931
0.06897582113742828,-0.37643754482269287,3.137068271636963,2023-05-16T16:00:25.960541Z,1684252825960
-0.0034621069207787514,-0.1591237634420395,3.111501932144165,2023-05-16T16:00:25.973956Z,1684252825973
-0.05779055133461952,-0.0025300011038780212,3.0305418968200684,2023-05-16T16:00:25.992219Z,1684252825992
0.030626330524683,-0.40626493096351624,2.9059059619903564,2023-05-16T16:00:26.012229Z,1684252826012
0.14993585646152496,-1.3330442905426025,2.745051145553589,2023-05-16T16:00:26.033104Z,1684252826032
0.19787272810935974,-2.055293083190918,2.610827922821045,2023-05-16T16:00:26.059246Z,1684252826059
0.13289164006710052,-2.2065603733062744,2.5181500911712646,2023-05-16T16:00:26.072687Z,1684252826072
-0.010918952524662018,-2.34291410446167,2.3594257831573486,2023-05-16T16:00:26.091926Z,1684252826091
-0.27830013632774353,-2.599642753601074,1.992975115776062,2023-05-16T16:00:26.113632Z,1684252826113
-1.1475552320480347,-2.6145565509796143,1.6947013139724731,2023-05-16T16:00:26.132465Z,1684252826132
-2.5494422912597656,-2.2598235607147217,1.494431734085083,2023-05-16T16:00:26.165095Z,1684252826164
-4.398739814758301,-1.0305094718933105,1.1322420835494995,2023-05-16T16:00:26.172619Z,1684252826172
-6.608096599578857,0.5652555227279663,0.4866923391819,2023-05-16T16:00:26.192543Z,1684252826192
-8.675773620605469,1.3418327569961548,-0.5892239809036255,2023-05-16T16:00:26.214513Z,1684252826214
-10.13305377960205,0.8848345875740051,-2.400172233581543,2023-05-16T16:00:26.235058Z,1684252826234
-10.952241897583008,0.30959224700927734,-4.84495210647583,2023-05-16T16:00:26.262758Z,1684252826262
-11.675556182861328,0.7367629408836365,-6.927542686462402,2023-05-16T16:00:26.273519Z,1684252826273
-12.465981483459473,2.6457154750823975,-8.575505256652832,2023-05-16T16:00:26.293800Z,1684252826293
-12.754668235778809,4.161585807800293,-9.898563385009766,2023-05-16T16:00:26.314025Z,1684252826313
-11.97382926940918,5.3738555908203125,-11.330277442932129,2023-05-16T16:00:26.332582Z,1684252826332
-9.743167877197266,5.9192705154418945,-12.643747329711914,2023-05-16T16:00:26.367632Z,1684252826367
-7.229145526885986,4.924314498901367,-11.818167686462402,2023-05-16T16:00:26.372586Z,1684252826372
-5.857085704803467,5.370659828186035,-9.995501518249512,2023-05-16T16:00:26.393146Z,1684252826393
-3.753190040588379,4.607931137084961,-8.656465530395508,2023-05-16T16:00:26.414684Z,1684252826414
-2.1840567588806152,2.691521644592285,-7.62422513961792,2023-05-16T16:00:26.450967Z,1684252826450
-1.3915005922317505,1.626258134841919,-6.944586753845215,2023-05-16T16:00:26.456805Z,1684252826456
-0.982439398765564,1.3684643507003784,-5.811146259307861,2023-05-16T16:00:26.477038Z,1684252826476
-0.7832350730895996,1.316266417503357,-4.447608947753906,2023-05-16T16:00:26.492793Z,1684252826492
-0.6106624007225037,1.3354411125183105,-3.5517220497131348,2023-05-16T16:00:26.513850Z,1684252826513
-0.4881570637226105,0.6589987277984619,-3.263035774230957,2023-05-16T16:00:26.552004Z,1684252826551
-0.3826959729194641,-0.3753722608089447,-3.212968349456787,2023-05-16T16:00:26.555687Z,1684252826555
-0.3400854170322418,-1.189233660697937,-2.9274775981903076,2023-05-16T16:00:26.574522Z,1684252826574
-0.5062665343284607,-0.7812377214431763,-2.653704881668091,2023-05-16T16:00:26.594360Z,1684252826594
-0.7107971906661987,0.3202448785305023,-2.0454392433166504,2023-05-16T16:00:26.614824Z,1684252826614
-0.8130624890327454,1.0382325649261475,-1.4531527757644653,2023-05-16T16:00:26.649468Z,1684252826649
-0.7374287843704224,0.7836345434188843,-1.1314431428909302,2023-05-16T16:00:26.653426Z,1684252826653
-0.622380256652832,-3.994738799519837E-4,-1.0632662773132324,2023-05-16T16:00:26.676483Z,1684252826676
-0.6095971465110779,-0.4499407410621643,-0.9886978268623352,2023-05-16T16:00:26.693097Z,1684252826692
-0.7310371994972229,-0.3796333372592926,-0.7596661448478699,2023-05-16T16:00:26.713438Z,1684252826713
-0.8269109129905701,0.48429548740386963,-0.49228495359420776,2023-05-16T16:00:26.745382Z,1684252826745
-0.6692518591880798,1.258742094039917,-0.11837742477655411,2023-05-16T16:00:26.756088Z,1684252826756
-0.6660560965538025,1.635845422744751,0.2757701277732849,2023-05-16T16:00:26.775935Z,1684252826775
-0.5776392221450806,1.449424386024475,0.3524691164493561,2023-05-16T16:00:26.795178Z,1684252826795
-0.4668518006801605,1.1255842447280884,0.3247722387313843,2023-05-16T16:00:26.813320Z,1684252826813
-0.5115928649902344,0.993491530418396,0.4866923391819,2023-05-16T16:00:26.846056Z,1684252826845
-0.4338286221027374,0.9359672665596008,0.6379597783088684,2023-05-16T16:00:26.859691Z,1684252826859
-0.3400854170322418,0.7346324324607849,0.6571345329284668,2023-05-16T16:00:26.875232Z,1684252826875
-0.24527695775032043,0.6046702861785889,0.8339682817459106,2023-05-16T16:00:26.895544Z,1684252826895
-0.02157158963382244,0.4342280924320221,0.950082004070282,2023-05-16T16:00:26.915204Z,1684252826915
0.15419691801071167,0.2605901062488556,1.0544778108596802,2023-05-16T16:00:26.948125Z,1684252826948
0.12543480098247528,0.08162582665681839,1.2728569507598877,2023-05-16T16:00:26.958764Z,1684252826958
-0.06737792491912842,-0.08668582886457443,1.6052191257476807,2023-05-16T16:00:26.974037Z,1684252826973
-0.05566002428531647,-0.24541011452674866,2.213484764099121,2023-05-16T16:00:26.993535Z,1684252826993
0.1765674501657486,-0.5948165655136108,2.719484806060791,2023-05-16T16:00:27.015839Z,1684252827015
0.21491694450378418,-0.7215829491615295,2.908036470413208,2023-05-16T16:00:27.050299Z,1684252827050
0.3310306668281555,-0.6384924054145813,2.9964535236358643,2023-05-16T16:00:27.054508Z,1684252827054
0.5483444333076477,-0.9346356987953186,3.4012537002563477,2023-05-16T16:00:27.075Z,1684252827074
0.6548708081245422,-0.992159903049469,3.7282896041870117,2023-05-16T16:00:27.095357Z,1684252827095
0.7283740043640137,-0.7077345252037048,3.607914686203003,2023-05-16T16:00:27.115030Z,1684252827114
0.7315698266029358,-0.007856319658458233,3.498192548751831,2023-05-16T16:00:27.145810Z,1684252827145
0.7933551073074341,0.47896915674209595,3.6451990604400635,2023-05-16T16:00:27.154675Z,1684252827154
0.8775109052658081,0.7229145169258118,3.7932705879211426,2023-05-16T16:00:27.178751Z,1684252827178
0.7209171652793884,1.404683232307434,3.6547863483428955,2023-05-16T16:00:27.193676Z,1684252827193
0.4769718050956726,2.261155128479004,3.4768874645233154,2023-05-16T16:00:27.214213Z,1684252827214
0.30972540378570557,2.4976437091827393,3.627089500427246,2023-05-16T16:00:27.246731Z,1684252827246
0.2756369709968567,2.1791298389434814,3.959451913833618,2023-05-16T16:00:27.257729Z,1684252827257
0.22130851447582245,1.8648771047592163,4.241746425628662,2023-05-16T16:00:27.273852Z,1684252827273
0.13076111674308777,1.819070816040039,4.310988903045654,2023-05-16T16:00:27.293766Z,1684252827293
0.11584742367267609,2.0214710235595703,4.234289646148682,2023-05-16T16:00:27.315032Z,1684252827314
0.16165375709533691,2.468881607055664,4.318445682525635,2023-05-16T16:00:27.349522Z,1684252827349
0.18508955836296082,2.8204185962677,4.592218399047852,2023-05-16T16:00:27.355005Z,1684252827354
0.18508955836296082,2.66275954246521,4.778639316558838,2023-05-16T16:00:27.375748Z,1684252827375
0.3352917432785034,1.966077208518982,4.657199382781982,2023-05-16T16:00:27.393797Z,1684252827393
0.5366265773773193,1.1841737031936646,4.443081378936768,2023-05-16T16:00:27.413908Z,1684252827413
0.6079992055892944,0.83476722240448,4.463321685791016,2023-05-16T16:00:27.453456Z,1684252827453
0.6570013761520386,0.6408892273902893,4.526172161102295,2023-05-16T16:00:27.455489Z,1684252827455
0.7944203615188599,0.4853607416152954,4.337620258331299,2023-05-16T16:00:27.474444Z,1684252827474
0.9616667628288269,0.3543333113193512,4.070239067077637,2023-05-16T16:00:27.496389Z,1684252827496
1.0138646364212036,0.5109270811080933,3.9860832691192627,2023-05-16T16:00:27.515870Z,1684252827515
0.9211867451667786,0.9242493510246277,4.1064581871032715,2023-05-16T16:00:27.547911Z,1684252827547
0.8807067275047302,1.417466402053833,4.148003578186035,2023-05-16T16:00:27.557919Z,1684252827557
0.8828372359275818,1.3002874851226807,3.8923401832580566,2023-05-16T16:00:27.575065Z,1684252827574
0.844487726688385,1.0392978191375732,3.693135976791382,2023-05-16T16:00:27.595581Z,1684252827595
0.7582014203071594,0.7197187542915344,3.741072654724121,2023-05-16T16:00:27.615777Z,1684252827615
0.6783066391944885,0.4960133731365204,3.757051706314087,2023-05-16T16:00:27.645545Z,1684252827645
0.7326350808143616,0.45020705461502075,3.6302852630615234,2023-05-16T16:00:27.659344Z,1684252827659
0.7475487589836121,0.5684512853622437,3.4960620403289795,2023-05-16T16:00:27.674569Z,1684252827674
0.6026729345321655,0.7825692892074585,3.4907357692718506,2023-05-16T16:00:27.694816Z,1684252827694
0.33955278992652893,0.8880304098129272,3.6590473651885986,2023-05-16T16:00:27.717706Z,1684252827717
0.14034847915172577,0.6952176690101624,3.8220326900482178,2023-05-16T16:00:27.750865Z,1684252827750
0.16804534196853638,0.17643429338932037,3.702723264694214,2023-05-16T16:00:27.754551Z,1684252827754
0.280963271856308,-0.5000081062316895,3.339468240737915,2023-05-16T16:00:27.774733Z,1684252827774
0.33848753571510315,-1.0528799295425415,3.0806093215942383,2023-05-16T16:00:27.794560Z,1684252827794
0.2788327634334564,-1.0400967597961426,3.0838050842285156,2023-05-16T16:00:27.816412Z,1684252827816
0.2607232630252838,-0.7940208911895752,3.08273983001709,2023-05-16T16:00:27.852234Z,1684252827852
0.4119907021522522,-0.8547409176826477,2.8366639614105225,2023-05-16T16:00:27.854750Z,1684252827854
0.39920756220817566,-1.0965557098388672,2.590588092803955,2023-05-16T16:00:27.879955Z,1684252827879
0.33848753571510315,-1.420395851135254,2.5980448722839355,2023-05-16T16:00:27.894722Z,1684252827894
0.45566651225090027,-1.9285266399383545,2.545846939086914,2023-05-16T16:00:27.914747Z,1684252827914
0.6367613673210144,-2.347175359725952,2.3264026641845703,2023-05-16T16:00:27.945797Z,1684252827945
0.4822981059551239,-2.386590003967285,2.232659339904785,2023-05-16T16:00:27.956904Z,1684252827956
0.26391905546188354,-2.7221481800079346,2.2763352394104004,2023-05-16T16:00:27.974975Z,1684252827974
-0.1525990217924118,-3.3858072757720947,2.2358553409576416,2023-05-16T16:00:27.996808Z,1684252827996
-1.2157320976257324,-2.983137607574463,2.202831983566284,2023-05-16T16:00:28.014656Z,1684252828014
-3.192861557006836,-1.4960296154022217,2.387122631072998,2023-05-16T16:00:28.046590Z,1684252828046
-5.652554988861084,0.36072489619255066,2.3146846294403076,2023-05-16T16:00:28.055058Z,1684252828054
-8.044072151184082,1.7679381370544434,1.3474253416061401,2023-05-16T16:00:28.078362Z,1684252828078
-9.671794891357422,1.9170750379562378,-0.5636576414108276,2023-05-16T16:00:28.094782Z,1684252828094
-10.427066802978516,1.7189360857009888,-3.013763904571533,2023-05-16T16:00:28.117411Z,1684252828117
-10.944785118103027,1.6326496601104736,-5.457479000091553,2023-05-16T16:00:28.154074Z,1684252828153
-11.74586296081543,1.6347801685333252,-7.096919536590576,2023-05-16T16:00:28.158499Z,1684252828158
-12.388216972351074,2.6254754066467285,-8.878040313720703,2023-05-16T16:00:28.175290Z,1684252828175
-12.082486152648926,4.0838212966918945,-10.962760925292969,2023-05-16T16:00:28.196754Z,1684252828196
-10.027592658996582,4.344810962677002,-12.299667358398438,2023-05-16T16:00:28.215245Z,1684252828215
-9.073116302490234,3.4776864051818848,-10.628268241882324,2023-05-16T16:00:28.250270Z,1684252828250
-7.7639079093933105,4.731501579284668,-10.750773429870605,2023-05-16T16:00:28.254953Z,1684252828254
-6.008353233337402,3.933619260787964,-10.884997367858887,2023-05-16T16:00:28.275810Z,1684252828275
-4.4498724937438965,3.2561113834381104,-10.552635192871094,2023-05-16T16:00:28.295153Z,1684252828295
-2.9702212810516357,3.0856692790985107,-9.360605239868164,2023-05-16T16:00:28.317648Z,1684252828317
-1.9188060760498047,3.0430586338043213,-6.670814037322998,2023-05-16T16:00:28.346737Z,1684252828346
-1.4373070001602173,3.0569071769714355,-4.821516513824463,2023-05-16T16:00:28.357044Z,1684252828356
-0.8279761672019958,2.613757610321045,-3.997002363204956,2023-05-16T16:00:28.375233Z,1684252828375
-0.481765478849411,1.412140130996704,-3.228947162628174,2023-05-16T16:00:28.397727Z,1684252828397
-0.3635212182998657,0.37137752771377563,-2.294711112976074,2023-05-16T16:00:28.415407Z,1684252828415
-0.3613906800746918,-0.31571751832962036,-2.048635244369507,2023-05-16T16:00:28.443947Z,1684252828443
-0.39121806621551514,-0.7854987978935242,-2.6856627464294434,2023-05-16T16:00:28.455610Z,1684252828455
-0.3922833502292633,-1.1018821001052856,-3.158639907836914,2023-05-16T16:00:28.475597Z,1684252828475
-0.49987494945526123,-1.202016830444336,-2.842256546020508,2023-05-16T16:00:28.495331Z,1684252828495
-0.6500771641731262,-0.32104381918907166,-2.301102638244629,2023-05-16T16:00:28.515260Z,1684252828515
-0.8034750819206238,0.9487504363059998,-1.769536018371582,2023-05-16T16:00:28.554229Z,1684252828554
-0.823715090751648,1.3844432830810547,-1.3934979438781738,2023-05-16T16:00:28.556111Z,1684252828556
-0.915327787399292,1.236371636390686,-1.0590052604675293,2023-05-16T16:00:28.575844Z,1684252828575
-1.0133320093154907,1.2299799919128418,-0.7862977385520935,2023-05-16T16:00:28.595348Z,1684252828595
-1.0037447214126587,1.3546159267425537,-0.5977460741996765,2023-05-16T16:00:28.615663Z,1684252828615
-1.0761826038360596,1.3919000625610352,-0.3356912136077881,2023-05-16T16:00:28.647461Z,1684252828647
-1.165664792060852,1.4654033184051514,0.06058686971664429,2023-05-16T16:00:28.657131Z,1684252828657
-1.3350416421890259,1.5527548789978027,0.5410207509994507,2023-05-16T16:00:28.677743Z,1684252828677
-1.4745911359786987,1.7008265256881714,1.075783133506775,2023-05-16T16:00:28.695668Z,1684252828695
-1.4351764917373657,1.789243459701538,1.4720611572265625,2023-05-16T16:00:28.715912Z,1684252828715
-1.408544898033142,2.0299930572509766,1.5753917694091797,2023-05-16T16:00:28.742617Z,1684252828742
-1.3403680324554443,2.0363845825195312,1.8022929430007935,2023-05-16T16:00:28.755939Z,1684252828755
-1.3243889808654785,1.6528897285461426,2.149568796157837,2023-05-16T16:00:28.775771Z,1684252828775
-1.230645775794983,0.9625988602638245,2.5937838554382324,2023-05-16T16:00:28.797693Z,1684252828797
-0.945155143737793,0.11464899778366089,2.8920576572418213,2023-05-16T16:00:28.818331Z,1684252828818
-0.596813976764679,-0.5617933869361877,3.1626346111297607,2023-05-16T16:00:28.848585Z,1684252828848
-0.43276336789131165,-1.05820631980896,3.4875400066375732,2023-05-16T16:00:28.859128Z,1684252828859
-0.18029586970806122,-1.3362400531768799,3.6888747215270996,2023-05-16T16:00:28.875975Z,1684252828875
0.12756532430648804,-1.3266527652740479,3.8337507247924805,2023-05-16T16:00:28.895833Z,1684252828895
0.3033338189125061,-0.9783114790916443,4.039346694946289,2023-05-16T16:00:28.916003Z,1684252828915
0.35766226053237915,-0.6629934310913086,4.411123752593994,2023-05-16T16:00:28.952681Z,1684252828952
0.5206475853919983,-0.33595752716064453,4.720049858093262,2023-05-16T16:00:28.958610Z,1684252828958
0.7656582593917847,0.13595427572727203,4.595414161682129,2023-05-16T16:00:28.976651Z,1684252828976
0.7912245988845825,1.0446242094039917,4.233224391937256,2023-05-16T16:00:28.996137Z,1684252828996
0.5398223400115967,1.970338225364685,4.2204413414001465,2023-05-16T16:00:29.019663Z,1684252829019
0.45566651225090027,2.2377195358276367,4.550673007965088,2023-05-16T16:00:29.050108Z,1684252829050
0.5579318404197693,1.89150869846344,4.691287994384766,2023-05-16T16:00:29.057599Z,1684252829057
0.6495444774627686,1.5612770318984985,4.544281482696533,2023-05-16T16:00:29.083982Z,1684252829083
0.5749760270118713,1.5953654050827026,4.4334940910339355,2023-05-16T16:00:29.096587Z,1684252829096
0.3885549008846283,1.9213361740112305,4.5187153816223145,2023-05-16T16:00:29.118359Z,1684252829118
0.20319904386997223,2.0544941425323486,4.673178672790527,2023-05-16T16:00:29.147510Z,1684252829147
0.14567480981349945,1.8254624605178833,4.754138469696045,2023-05-16T16:00:29.159957Z,1684252829159
0.3352917432785034,1.2566115856170654,4.546411991119385,2023-05-16T16:00:29.176659Z,1684252829176
0.5227781534194946,0.9657946228981018,4.3248372077941895,2023-05-16T16:00:29.197149Z,1684252829196
0.5398223400115967,1.1128010749816895,4.398340225219727,2023-05-16T16:00:29.228666Z,1684252829228
0.47910231351852417,1.2619379758834839,4.506997108459473,2023-05-16T16:00:29.239833Z,1684252829239
0.47058022022247314,1.07764732837677,4.428167819976807,2023-05-16T16:00:29.256269Z,1684252829256
0.5270391702651978,0.5364934206008911,4.217245578765869,2023-05-16T16:00:29.276775Z,1684252829276
0.5163865685462952,0.3394196331501007,4.181026458740234,2023-05-16T16:00:29.296593Z,1684252829296
0.5866939425468445,0.3820301592350006,4.356795310974121,2023-05-16T16:00:29.318291Z,1684252829318
0.5866939425468445,0.4299670457839966,4.492083549499512,2023-05-16T16:00:29.352444Z,1684252829352
0.6186518669128418,0.269112229347229,4.329098224639893,2023-05-16T16:00:29.356938Z,1684252829356
0.7805719375610352,-0.006791055668145418,4.035085678100586,2023-05-16T16:00:29.376760Z,1684252829376
0.9084035754203796,0.31385329365730286,4.083022594451904,2023-05-16T16:00:29.396641Z,1684252829396
0.8839024901390076,0.8123967051506042,4.281161308288574,2023-05-16T16:00:29.419595Z,1684252829419
0.8253130316734314,1.150085210800171,4.348272800445557,2023-05-16T16:00:29.453104Z,1684252829453
0.777376115322113,0.8912261724472046,4.118175983428955,2023-05-16T16:00:29.458061Z,1684252829458
0.7219824194908142,0.447011262178421,3.96903920173645,2023-05-16T16:00:29.477317Z,1684252829477
0.647413969039917,0.06032055243849754,4.029759407043457,2023-05-16T16:00:29.496611Z,1684252829496
0.601607620716095,-0.2347574681043625,3.9370813369750977,2023-05-16T16:00:29.516923Z,1684252829516
0.4812328517436981,-0.0834900364279747,3.77622652053833,2023-05-16T16:00:29.549579Z,1684252829549
0.3043990731239319,0.3436806797981262,3.9274938106536865,2023-05-16T16:00:29.563733Z,1684252829563
0.1861548274755478,0.2552638053894043,4.052129745483398,2023-05-16T16:00:29.576958Z,1684252829576
0.11478215456008911,-0.5106607675552368,3.7751612663269043,2023-05-16T16:00:29.596894Z,1684252829596
0.07536740601062775,-1.4310485124588013,3.3117713928222656,2023-05-16T16:00:29.616974Z,1684252829616
0.24154852330684662,-2.0414445400238037,3.057173490524292,2023-05-16T16:00:29.638113Z,1684252829638
0.5994771122932434,-1.9114824533462524,3.001779794692993,2023-05-16T16:00:29.657338Z,1684252829657
0.75180983543396,-1.5588802099227905,3.107240915298462,2023-05-16T16:00:29.677532Z,1684252829677
0.8029424548149109,-1.29362952709198,3.0635650157928467,2023-05-16T16:00:29.697232Z,1684252829697
0.3981422781944275,-1.4310485124588013,2.819619655609131,2023-05-16T16:00:29.718516Z,1684252829718
-0.5797697305679321,-1.4598106145858765,2.7269418239593506,2023-05-16T16:00:29.739026Z,1684252829738
-1.828258752822876,-1.402286410331726,2.5820658206939697,2023-05-16T16:00:29.757820Z,1684252829757
-3.6274890899658203,-0.9314398765563965,2.1762003898620605,2023-05-16T16:00:29.778160Z,1684252829778
-5.921001434326172,0.47470811009407043,1.402819037437439,2023-05-16T16:00:29.797421Z,1684252829797
-8.060050964355469,1.5783212184906006,-0.32397329807281494,2023-05-16T16:00:29.817312Z,1684252829817
-9.659011840820312,2.0789952278137207,-3.1032462120056152,2023-05-16T16:00:29.840413Z,1684252829840
-11.084334373474121,2.36981201171875,-5.636443138122559,2023-05-16T16:00:29.857363Z,1684252829857
-12.102726936340332,1.9117487668991089,-7.569896697998047,2023-05-16T16:00:29.877548Z,1684252829877
-12.622574806213379,1.6102792024612427,-9.271122932434082,2023-05-16T16:00:29.898484Z,1684252829898
-12.70992660522461,3.2912652492523193,-11.482609748840332,2023-05-16T16:00:29.917282Z,1684252829917
-12.218840599060059,4.719783782958984,-13.998763084411621,2023-05-16T16:00:29.938148Z,1684252829938
-11.385804176330566,5.405813694000244,-14.977740287780762,2023-05-16T16:00:29.958139Z,1684252829958
-10.319475173950195,6.771481513977051,-13.768665313720703,2023-05-16T16:00:29.978017Z,1684252829977
-7.933284759521484,8.503600120544434,-12.607528686523438,2023-05-16T16:00:29.997547Z,1684252829997
-4.218710422515869,6.366681098937988,-11.817102432250977,2023-05-16T16:00:30.017530Z,1684252830017
-1.686578631401062,3.3338756561279297,-10.303362846374512,2023-05-16T16:00:30.038962Z,1684252830038
-0.5552686452865601,1.5825823545455933,-8.924911499023438,2023-05-16T16:00:30.057708Z,1684252830057
-0.027963170781731606,0.9444893598556519,-7.750991344451904,2023-05-16T16:00:30.078020Z,1684252830077
0.24900537729263306,0.9540767669677734,-6.761361598968506,2023-05-16T16:00:30.097693Z,1684252830097
0.251135915517807,1.2523505687713623,-5.668400764465332,2023-05-16T16:00:30.119234Z,1684252830119
0.21065588295459747,1.568733811378479,-4.803406715393066,2023-05-16T16:00:30.153843Z,1684252830152
0.19254639744758606,1.9277276992797852,-4.118442535400391,2023-05-16T16:00:30.158110Z,1684252830158
0.18722008168697357,1.705087661743164,-3.4292168617248535,2023-05-16T16:00:30.177803Z,1684252830177
0.2713759243488312,0.8624640703201294,-2.7442522048950195,2023-05-16T16:00:30.198166Z,1684252830198
0.22450430691242218,0.09014793485403061,-1.9698055982589722,2023-05-16T16:00:30.218672Z,1684252830218
-0.032224226742982864,-0.1591237634420395,-1.4978938102722168,2023-05-16T16:00:30.237807Z,1684252830237
-0.32836753129959106,-0.1964079886674881,-1.2475569248199463,2023-05-16T16:00:30.258970Z,1684252830258
-0.7065361142158508,-0.10905636847019196,-1.1229209899902344,2023-05-16T16:00:30.278139Z,1684252830278
-0.9259804487228394,0.30533120036125183,-0.8821714520454407,2023-05-16T16:00:30.297903Z,1684252830297
-0.8908267021179199,0.48749127984046936,-0.7490134835243225,2023-05-16T16:00:30.318243Z,1684252830318
-1.042094111442566,0.5279712677001953,-0.8107987642288208,2023-05-16T16:00:30.339152Z,1684252830339
-1.0452899932861328,0.3117227852344513,-0.7628619074821472,2023-05-16T16:00:30.357873Z,1684252830357
-1.0825741291046143,-0.20706062018871307,-0.4858933687210083,2023-05-16T16:00:30.377970Z,1684252830377
-0.9408941268920898,-0.7482145428657532,0.005193160381168127,2023-05-16T16:00:30.397941Z,1684252830397
-0.6649908423423767,-1.3053474426269531,0.4632565379142761,2023-05-16T16:00:30.418062Z,1684252830418
-0.5105276107788086,-1.8230655193328857,0.8126630187034607,2023-05-16T16:00:30.438654Z,1684252830438
-0.31025803089141846,-2.512291193008423,1.0917620658874512,2023-05-16T16:00:30.459058Z,1684252830459
-0.19414429366588593,-2.7924554347991943,1.5125411748886108,2023-05-16T16:00:30.478164Z,1684252830478
-0.1579253375530243,-2.3407835960388184,1.963147759437561,2023-05-16T16:00:30.498111Z,1684252830498
-0.1387505829334259,-1.6813855171203613,2.550107955932617,2023-05-16T16:00:30.519008Z,1684252830518
-0.3400854170322418,-1.3362400531768799,3.2925968170166016,2023-05-16T16:00:30.539318Z,1684252830539
-0.5872265696525574,-1.0763157606124878,3.929624319076538,2023-05-16T16:00:30.559812Z,1684252830559
-0.923849880695343,-0.7599324584007263,4.5378899574279785,2023-05-16T16:00:30.579392Z,1684252830579
-1.2615385055541992,-0.34447962045669556,5.154677391052246,2023-05-16T16:00:30.598784Z,1684252830598
-1.2444941997528076,-0.163384810090065,5.537107467651367,2023-05-16T16:00:30.621541Z,1684252830621
-1.1017489433288574,-0.275237500667572,5.972800254821777,2023-05-16T16:00:30.638414Z,1684252830638
-0.6628602743148804,-0.9910946488380432,6.233789443969727,2023-05-16T16:00:30.658260Z,1684252830658
0.08921582996845245,-2.020139455795288,6.131524562835693,2023-05-16T16:00:30.678944Z,1684252830678
1.28018057346344,-2.6529059410095215,5.709680080413818,2023-05-16T16:00:30.698485Z,1684252830698
2.3805978298187256,-2.5090954303741455,4.951212406158447,2023-05-16T16:00:30.734930Z,1684252830734
3.0698235034942627,-1.3362400531768799,4.611392974853516,2023-05-16T16:00:30.743801Z,1684252830743
3.440535306930542,0.19241324067115784,4.876643657684326,2023-05-16T16:00:30.759896Z,1684252830759
3.515103816986084,2.0800604820251465,4.872382640838623,2023-05-16T16:00:30.778427Z,1684252830778
3.331878423690796,3.9645118713378906,4.579435348510742,2023-05-16T16:00:30.798445Z,1684252830798
2.8482487201690674,4.936032295227051,4.5528035163879395,2023-05-16T16:00:30.831698Z,1684252830831
2.3965768814086914,4.864659786224365,4.570913314819336,2023-05-16T16:00:30.843530Z,1684252830843
2.032256603240967,4.169042587280273,4.514454364776611,2023-05-16T16:00:30.858456Z,1684252830858
1.7915071249008179,3.2369368076324463,4.5623908042907715,2023-05-16T16:00:30.878535Z,1684252830878
1.6263912916183472,2.2441110610961914,4.545346736907959,2023-05-16T16:00:30.898753Z,1684252830898
1.5518227815628052,1.6166707277297974,4.450538158416748,2023-05-16T16:00:30.939418Z,1684252830939
1.6231955289840698,1.5484938621520996,4.337620258331299,2023-05-16T16:00:30.942455Z,1684252830942
1.6125428676605225,2.037449836730957,4.257725715637207,2023-05-16T16:00:30.959065Z,1684252830958
1.5251911878585815,2.2781994342803955,4.326967716217041,2023-05-16T16:00:30.978852Z,1684252830978
1.4165343046188354,2.061950922012329,4.46971321105957,2023-05-16T16:00:30.998789Z,1684252830998
1.388837456703186,1.7423717975616455,4.454799175262451,2023-05-16T16:00:31.033476Z,1684252831033
1.351553201675415,1.253415822982788,4.463321685791016,2023-05-16T16:00:31.038724Z,1684252831038
1.4346438646316528,1.0542114973068237,4.594348907470703,2023-05-16T16:00:31.060780Z,1684252831060
1.4239912033081055,0.993491530418396,4.763725757598877,2023-05-16T16:00:31.079627Z,1684252831079
1.1981552839279175,1.0659294128417969,4.997018814086914,2023-05-16T16:00:31.098855Z,1684252831098
1.1470226049423218,0.8965525031089783,5.014062881469727,2023-05-16T16:00:31.137633Z,1684252831137
1.1768499612808228,0.7367629408836365,4.952277660369873,2023-05-16T16:00:31.139988Z,1684252831139
1.1299784183502197,0.4821649491786957,4.946951389312744,2023-05-16T16:00:31.161792Z,1684252831161
1.1385005712509155,0.10186583548784256,4.8553385734558105,2023-05-16T16:00:31.179061Z,1684252831178
1.1992205381393433,-0.5170523524284363,4.712593078613281,2023-05-16T16:00:31.199454Z,1684252831199
1.3440964221954346,-1.1274484395980835,4.612458229064941,2023-05-16T16:00:31.228353Z,1684252831228
1.5784543752670288,-1.6196001768112183,4.338685512542725,2023-05-16T16:00:31.242715Z,1684252831242
1.803225040435791,-1.628122329711914,4.058521270751953,2023-05-16T16:00:31.259Z,1684252831258
1.8788588047027588,-0.9910946488380432,4.010584354400635,2023-05-16T16:00:31.279187Z,1684252831279
1.9321218729019165,-0.01318263728171587,3.994605541229248,2023-05-16T16:00:31.299222Z,1684252831299
1.694568157196045,0.32450592517852783,3.9818222522735596,2023-05-16T16:00:31.335627Z,1684252831335
1.2705931663513184,-0.2059953510761261,3.914710760116577,2023-05-16T16:00:31.339306Z,1684252831339
0.9435572624206543,-1.2222568988800049,3.6750264167785645,2023-05-16T16:00:31.360616Z,1684252831360
0.940361499786377,-1.4608758687973022,3.304314613342285,2023-05-16T16:00:31.381866Z,1684252831381
1.0575405359268188,-0.8131956458091736,3.037998676300049,2023-05-16T16:00:31.399266Z,1684252831399
0.806138277053833,-0.5948165655136108,3.2041797637939453,2023-05-16T16:00:31.435953Z,1684252831435
0.3789675533771515,-1.5887075662612915,3.428950548171997,2023-05-16T16:00:31.441742Z,1684252831441
-0.12596742808818817,-2.863828182220459,3.1647651195526123,2023-05-16T16:00:31.459311Z,1684252831459
-1.1134668588638306,-2.292846918106079,2.9304070472717285,2023-05-16T16:00:31.479315Z,1684252831479
-2.4908525943756104,-0.06644582003355026,3.0486514568328857,2023-05-16T16:00:31.499480Z,1684252831499
-4.3113884925842285,2.410292148590088,2.9101672172546387,2023-05-16T16:00:31.527116Z,1684252831526
-6.336454391479492,3.0973870754241943,2.144242525100708,2023-05-16T16:00:31.540646Z,1684252831540
-8.438220024108887,3.0164270401000977,0.6581997871398926,2023-05-16T16:00:31.560313Z,1684252831559
-10.334388732910156,3.0419933795928955,-1.1559442281723022,2023-05-16T16:00:31.579791Z,1684252831579
-11.783147811889648,3.6119096279144287,-3.26729679107666,2023-05-16T16:00:31.599321Z,1684252831599
-12.835627555847168,4.925379753112793,-5.812211513519287,2023-05-16T16:00:31.629278Z,1684252831629
-13.824193000793457,6.800243377685547,-8.007719993591309,2023-05-16T16:00:31.645608Z,1684252831645
-14.16401195526123,8.453533172607422,-10.556896209716797,2023-05-16T16:00:31.659473Z,1684252831659
-13.1200532913208,8.770981788635254,-14.174530982971191,2023-05-16T16:00:31.680086Z,1684252831679
-10.195904731750488,6.9120965003967285,-15.27175235748291,2023-05-16T16:00:31.699766Z,1684252831699
-8.651272773742676,7.486273288726807,-10.90949821472168,2023-05-16T16:00:31.738941Z,1684252831738
-7.402783393859863,11.000577926635742,-9.204010963439941,2023-05-16T16:00:31.744617Z,1684252831744
-3.7105796337127686,6.8918561935424805,-8.546743392944336,2023-05-16T16:00:31.759771Z,1684252831759
-1.7174713611602783,4.169042587280273,-8.334755897521973,2023-05-16T16:00:31.779772Z,1684252831779
-0.6926876902580261,2.0885825157165527,-7.7754926681518555,2023-05-16T16:00:31.799899Z,1684252831799
-0.21544957160949707,1.204413652420044,-6.670814037322998,2023-05-16T16:00:31.833067Z,1684252831832
-0.09827057272195816,1.2938958406448364,-5.887845516204834,2023-05-16T16:00:31.840332Z,1684252831840
-0.21544957160949707,1.0861694812774658,-5.377583980560303,2023-05-16T16:00:31.865403Z,1684252831865
-0.1664474457502365,0.5556681752204895,-5.028177738189697,2023-05-16T16:00:31.879902Z,1684252831879
-0.007723161485046148,0.031558435410261154,-4.777840614318848,2023-05-16T16:00:31.899884Z,1684252831899
-0.036485280841588974,0.06032055243849754,-4.247339248657227,2023-05-16T16:00:31.932788Z,1684252831932
-0.29747486114501953,0.2222406268119812,-3.505915880203247,2023-05-16T16:00:31.942737Z,1684252831942
-0.4114580750465393,-0.31145647168159485,-2.930673360824585,2023-05-16T16:00:31.960732Z,1684252831960
-0.37097805738449097,-1.276585340499878,-2.7485134601593018,2023-05-16T16:00:31.981936Z,1684252831981
-0.25060325860977173,-1.719735026359558,-3.0925934314727783,2023-05-16T16:00:32.002243Z,1684252832002
-0.360325425863266,-1.4001559019088745,-3.0222861766815186,2023-05-16T16:00:32.032498Z,1684252832032
-0.6585992574691772,-0.38282912969589233,-2.4534354209899902,2023-05-16T16:00:32.040551Z,1684252832040
-0.7459508776664734,0.37457332015037537,-1.9900456666946411,2023-05-16T16:00:32.060331Z,1684252832060
-0.6117276549339294,0.5812344551086426,-1.6523571014404297,2023-05-16T16:00:32.080921Z,1684252832080
-0.4551338851451874,0.37031227350234985,-1.4116075038909912,2023-05-16T16:00:32.100142Z,1684252832100
-0.3560643792152405,0.1657816469669342,-1.1474220752716064,2023-05-16T16:00:32.132103Z,1684252832131
-0.2239716798067093,-0.11118689179420471,-0.809733510017395,2023-05-16T16:00:32.141731Z,1684252832141
-0.10359688848257065,-0.30719539523124695,-0.3346259295940399,2023-05-16T16:00:32.163443Z,1684252832163
-0.008788425475358963,-0.350871205329895,0.23955115675926208,2023-05-16T16:00:32.180174Z,1684252832180
0.11797794699668884,-0.6022734045982361,0.7423555850982666,2023-05-16T16:00:32.203187Z,1684252832203
0.37151068449020386,-0.8398272395133972,1.0044105052947998,2023-05-16T16:00:32.233486Z,1684252832233
0.6037381887435913,-1.0390315055847168,1.3367726802825928,2023-05-16T16:00:32.243347Z,1684252832243
0.7997466921806335,-1.3692632913589478,1.754356026649475,2023-05-16T16:00:32.261696Z,1684252832261
0.9052077531814575,-1.993507742881775,2.18365740776062,2023-05-16T16:00:32.280509Z,1684252832280
1.1182605028152466,-2.521878480911255,2.6576995849609375,2023-05-16T16:00:32.300445Z,1684252832300
1.6668713092803955,-3.091794490814209,2.864360809326172,2023-05-16T16:00:32.334385Z,1684252832334
1.8937724828720093,-3.6308178901672363,3.1189587116241455,2023-05-16T16:00:32.342671Z,1684252832342
1.8916418552398682,-4.065445423126221,3.8380117416381836,2023-05-16T16:00:32.362197Z,1684252832362
1.9662103652954102,-4.754671096801758,4.612458229064941,2023-05-16T16:00:32.380900Z,1684252832380
2.2559621334075928,-4.8409576416015625,5.011932373046875,2023-05-16T16:00:32.402700Z,1684252832402
2.4466443061828613,-4.30832576751709,5.3016839027404785,2023-05-16T16:00:32.434387Z,1684252832434
2.35929274559021,-3.702190637588501,5.687309265136719,2023-05-16T16:00:32.441632Z,1684252832441
2.2272000312805176,-2.9341354370117188,5.867339134216309,2023-05-16T16:00:32.465542Z,1684252832465
2.225069522857666,-1.2307789325714111,5.779987335205078,2023-05-16T16:00:32.481481Z,1684252832481
2.181393623352051,0.843289315700531,5.557347297668457,2023-05-16T16:00:32.500871Z,1684252832500
2.3603579998016357,2.042776107788086,5.114197731018066,2023-05-16T16:00:32.530035Z,1684252832529
2.9132297039031982,2.1738035678863525,4.605001449584961,2023-05-16T16:00:32.545734Z,1684252832545
3.7356133460998535,1.073386311531067,4.257725715637207,2023-05-16T16:00:32.561411Z,1684252832561
4.5590620040893555,-0.32637014985084534,3.7197675704956055,2023-05-16T16:00:32.582134Z,1684252832582
5.049083232879639,-0.7013429403305054,3.150916576385498,2023-05-16T16:00:32.600946Z,1684252832600
5.084237098693848,0.20200061798095703,2.758899688720703,2023-05-16T16:00:32.633215Z,1684252832633
4.7721147537231445,1.6454328298568726,2.6193501949310303,2023-05-16T16:00:32.642617Z,1684252832642
4.403533458709717,2.6798038482666016,2.5447816848754883,2023-05-16T16:00:32.660783Z,1684252832660
4.0924763679504395,3.1261494159698486,2.5383901596069336,2023-05-16T16:00:32.682420Z,1684252832682
4.057322978973389,2.673412322998047,2.5128238201141357,2023-05-16T16:00:32.702124Z,1684252832701
4.171306133270264,1.8201360702514648,2.436124801635742,2023-05-16T16:00:32.721840Z,1684252832721
4.2011332511901855,1.392965316772461,2.2699437141418457,2023-05-16T16:00:32.744627Z,1684252832744
3.991276502609253,1.6614117622375488,2.0686087608337402,2023-05-16T16:00:32.762548Z,1684252832762
3.672762632369995,2.3815300464630127,2.0664782524108887,2023-05-16T16:00:32.781388Z,1684252832781
3.3531835079193115,2.9567723274230957,2.2209415435791016,2023-05-16T16:00:32.801526Z,1684252832801
3.1166951656341553,2.9876649379730225,2.486192226409912,2023-05-16T16:00:32.832195Z,1684252832832
2.9579708576202393,2.5253405570983887,2.7525081634521484,2023-05-16T16:00:32.847067Z,1684252832847
2.850379228591919,2.15675950050354,2.8899271488189697,2023-05-16T16:00:32.861164Z,1684252832861
2.7427875995635986,1.947967767715454,2.993257761001587,2023-05-16T16:00:32.881328Z,1684252832881
2.671414852142334,1.8648771047592163,3.171156644821167,2023-05-16T16:00:32.902854Z,1684252832902
2.547844409942627,1.8158750534057617,3.334141969680786,2023-05-16T16:00:32.934336Z,1684252832934
2.3912506103515625,1.973534107208252,3.572761058807373,2023-05-16T16:00:32.942308Z,1684252832942
2.10149884223938,2.140780448913574,3.9040579795837402,2023-05-16T16:00:32.961358Z,1684252832961
1.8543577194213867,1.819070816040039,4.251334190368652,2023-05-16T16:00:32.981443Z,1684252832981
1.8309218883514404,1.1117358207702637,4.445211887359619,2023-05-16T16:00:33.001486Z,1684252833001
2.012016773223877,0.2605901062488556,4.4590606689453125,2023-05-16T16:00:33.030569Z,1684252833030
2.234656810760498,-0.4936165511608124,4.393013954162598,2023-05-16T16:00:33.042474Z,1684252833042
2.35929274559021,-0.6161218881607056,4.310988903045654,2023-05-16T16:00:33.062432Z,1684252833062
2.1196084022521973,0.018775271251797676,4.290748596191406,2023-05-16T16:00:33.084605Z,1684252833084
1.4974943399429321,1.017992615699768,4.455864429473877,2023-05-16T16:00:33.115071Z,1684252833114
0.9147951602935791,1.2225232124328613,4.623111248016357,2023-05-16T16:00:33.122020Z,1684252833121
0.5664539337158203,0.46512073278427124,4.737094402313232,2023-05-16T16:00:33.145146Z,1684252833144
0.7294392585754395,-0.4041343927383423,4.744551181793213,2023-05-16T16:00:33.162086Z,1684252833161
1.3259868621826172,-1.0890989303588867,4.148003578186035,2023-05-16T16:00:33.181682Z,1684252833181
0.9861677885055542,-1.0262483358383179,3.7133758068084717,2023-05-16T16:00:33.201642Z,1684252833201
0.24900537729263306,-0.18575534224510193,3.849729537963867,2023-05-16T16:00:33.229073Z,1684252833228
-0.2655169665813446,-0.6129260659217834,3.6153717041015625,2023-05-16T16:00:33.243705Z,1684252833243
-0.6436855792999268,-1.804956078529358,2.78979229927063,2023-05-16T16:00:33.261546Z,1684252833261
-1.832519769668579,-2.2118868827819824,2.2965753078460693,2023-05-16T16:00:33.282440Z,1684252833282
-3.8842175006866455,-1.943440318107605,2.1857879161834717,2023-05-16T16:00:33.310323Z,1684252833310
-6.065877437591553,-1.297890543937683,1.6787223815917969,2023-05-16T16:00:33.325450Z,1684252833325
-8.092008590698242,-0.23795326054096222,0.37377437949180603,2023-05-16T16:00:33.345404Z,1684252833345
-10.316279411315918,0.3820301592350006,-1.3615400791168213,2023-05-16T16:00:33.363572Z,1684252833363
-12.00578784942627,0.14128059148788452,-3.2161641120910645,2023-05-16T16:00:33.382086Z,1684252833381
-12.626835823059082,-0.32530489563941956,-4.979175567626953,2023-05-16T16:00:33.418178Z,1684252833418
-12.759994506835938,-0.5266396999359131,-6.517416000366211,2023-05-16T16:00:33.423097Z,1684252833423
-13.459872245788574,0.09440898895263672,-7.77442741394043,2023-05-16T16:00:33.448755Z,1684252833448
-14.207687377929688,1.9745993614196777,-9.1486177444458,2023-05-16T16:00:33.461994Z,1684252833461
-13.907282829284668,4.737893104553223,-10.910563468933105,2023-05-16T16:00:33.482105Z,1684252833481
-13.108335494995117,6.492382526397705,-11.040525436401367,2023-05-16T16:00:33.503890Z,1684252833503
-11.85345458984375,8.690021514892578,-10.650638580322266,2023-05-16T16:00:33.529154Z,1684252833529
-9.423588752746582,8.625040054321289,-10.600571632385254,2023-05-16T16:00:33.545309Z,1684252833545
-6.542050361633301,7.315831184387207,-9.623724937438965,2023-05-16T16:00:33.562063Z,1684252833562
-4.014179706573486,5.372790336608887,-7.970435619354248,2023-05-16T16:00:33.582027Z,1684252833581
-2.502570629119873,3.501121997833252,-6.712359428405762,2023-05-16T16:00:33.602076Z,1684252833602
-1.3574122190475464,2.409226894378662,-6.162683486938477,2023-05-16T16:00:33.622216Z,1684252833622
-0.7502118945121765,1.4771212339401245,-5.804754734039307,2023-05-16T16:00:33.643909Z,1684252833643
-0.613858163356781,0.9700556993484497,-5.2646660804748535,2023-05-16T16:00:33.662476Z,1684252833662
-0.6703171730041504,0.8784430027008057,-4.536025524139404,2023-05-16T16:00:33.682708Z,1684252833682
-0.756603479385376,1.0211883783340454,-3.7914063930511475,2023-05-16T16:00:33.703450Z,1684252833703
-0.7885614037513733,0.9050745964050293,-3.3141684532165527,2023-05-16T16:00:33.722908Z,1684252833722
-0.8684561848640442,0.9072051644325256,-3.147987127304077,2023-05-16T16:00:33.742523Z,1684252833742
-1.0229194164276123,1.0488852262496948,-2.891258716583252,2023-05-16T16:00:33.764152Z,1684252833764
-1.0378330945968628,0.864594578742981,-2.192445755004883,2023-05-16T16:00:33.782642Z,1684252833782
-0.9653951525688171,0.23289325833320618,-1.3658010959625244,2023-05-16T16:00:33.802820Z,1684252833802
-0.9004141092300415,0.0762995108962059,-0.7213166356086731,2023-05-16T16:00:33.822651Z,1684252833822
-1.019723653793335,0.7836345434188843,-0.4059986174106598,2023-05-16T16:00:33.842848Z,1684252833842
-1.13370680809021,1.516535997390747,-0.027830012142658234,2023-05-16T16:00:33.862591Z,1684252833862
-1.066595196723938,1.3439632654190063,0.6305029392242432,2023-05-16T16:00:33.882694Z,1684252833882
-0.8439550995826721,0.7452850937843323,1.4038842916488647,2023-05-16T16:00:33.902708Z,1684252833902
-0.7843003273010254,0.57058185338974,2.104827880859375,2023-05-16T16:00:33.923294Z,1684252833923
-0.8791088461875916,0.9636641144752502,2.6726133823394775,2023-05-16T16:00:33.942881Z,1684252833942
-0.9803088903427124,1.2470242977142334,3.0145628452301025,2023-05-16T16:00:33.962843Z,1684252833962
-0.8865656852722168,0.8752472400665283,3.180744171142578,2023-05-16T16:00:33.982773Z,1684252833982
-0.5648560523986816,-0.407330185174942,3.0848703384399414,2023-05-16T16:00:34.003716Z,1684252834003
-0.9781783223152161,-1.665406584739685,2.3050973415374756,2023-05-16T16:00:34.023086Z,1684252834023
-1.074052095413208,-2.7924554347991943,1.8480992317199707,2023-05-16T16:00:34.044589Z,1684252834044
-0.9590035676956177,-4.028161525726318,2.2997710704803467,2023-05-16T16:00:34.062762Z,1684252834062
-0.5712476372718811,-4.540553092956543,2.864360809326172,2023-05-16T16:00:34.082984Z,1684252834082
-0.3741738498210907,-4.262519359588623,3.4427988529205322,2023-05-16T16:00:34.103942Z,1684252834103
0.007190529722720385,-3.7778244018554688,3.8976664543151855,2023-05-16T16:00:34.124294Z,1684252834124
0.1531316488981247,-2.7178869247436523,4.162917137145996,2023-05-16T16:00:34.143240Z,1684252834143
-0.33369383215904236,-0.5032039284706116,4.405797481536865,2023-05-16T16:00:34.163391Z,1684252834163
-0.5190497040748596,2.613757610321045,4.929906845092773,2023-05-16T16:00:34.183367Z,1684252834183
-1.4405027627944946,3.8760948181152344,5.420993328094482,2023-05-16T16:00:34.206880Z,1684252834206
-1.949698805809021,3.2901999950408936,5.41140604019165,2023-05-16T16:00:34.224161Z,1684252834224
-2.5931179523468018,1.9671424627304077,5.182374477386475,2023-05-16T16:00:34.243249Z,1684252834243
-2.905240297317505,0.36072489619255066,5.031106948852539,2023-05-16T16:00:34.263974Z,1684252834263
-2.997918128967285,-0.6363618969917297,5.05560827255249,2023-05-16T16:00:34.283610Z,1684252834283
-3.0905961990356445,-1.2190611362457275,5.199418544769287,2023-05-16T16:00:34.308582Z,1684252834308
-3.1555771827697754,-1.4907033443450928,5.493431568145752,2023-05-16T16:00:34.324768Z,1684252834324
-3.023484468460083,-1.5855118036270142,5.728854656219482,2023-05-16T16:00:34.343032Z,1684252834342
-2.682600259780884,-1.482181191444397,5.948298931121826,2023-05-16T16:00:34.364561Z,1684252834364
-2.2628862857818604,-1.833718180656433,6.018606185913086,2023-05-16T16:00:34.385392Z,1684252834385
-2.031723976135254,-2.8063039779663086,5.904623031616211,2023-05-16T16:00:34.416979Z,1684252834416
-1.8314545154571533,-3.1940598487854004,5.795966148376465,2023-05-16T16:00:34.430565Z,1684252834430
-1.4341111183166504,-2.9213523864746094,5.911014556884766,2023-05-16T16:00:34.443245Z,1684252834443
-1.0687257051467896,-2.5644891262054443,6.01008415222168,2023-05-16T16:00:34.465379Z,1684252834465
-0.8663256764411926,-2.5037689208984375,6.072934627532959,2023-05-16T16:00:34.485828Z,1684252834485
-0.8258456587791443,-3.0310745239257812,5.983452796936035,2023-05-16T16:00:34.521645Z,1684252834521
-0.5946834087371826,-3.8076517581939697,5.573326110839844,2023-05-16T16:00:34.526776Z,1684252834526
-0.27723485231399536,-3.6254916191101074,5.172787189483643,2023-05-16T16:00:34.545948Z,1684252834545
0.06897582113742828,-2.5229437351226807,4.869186878204346,2023-05-16T16:00:34.564798Z,1684252834564
0.18508955836296082,-1.3618063926696777,4.927776336669922,2023-05-16T16:00:34.583536Z,1684252834583
0.14247901737689972,-0.6842987537384033,5.020454406738281,2023-05-16T16:00:34.620411Z,1684252834620
0.0966726765036583,-1.1381011009216309,4.682765960693359,2023-05-16T16:00:34.623784Z,1684252834623
0.0636495053768158,-1.8518277406692505,4.203397274017334,2023-05-16T16:00:34.645239Z,1684252834645
0.11478215456008911,-1.9370487928390503,3.920037031173706,2023-05-16T16:00:34.663763Z,1684252834663
0.14034847915172577,-1.5077475309371948,3.8689043521881104,2023-05-16T16:00:34.683870Z,1684252834683
0.1712411344051361,-1.239301085472107,3.7975316047668457,2023-05-16T16:00:34.714464Z,1684252834714
0.17443692684173584,-1.519465446472168,3.6164369583129883,2023-05-16T16:00:34.724729Z,1684252834724
0.2841590642929077,-1.9040255546569824,3.41829776763916,2023-05-16T16:00:34.744567Z,1684252834744
0.3683148920536041,-1.9050908088684082,3.176482915878296,2023-05-16T16:00:34.764581Z,1684252834764
0.39920756220817566,-1.360741138458252,3.0348029136657715,2023-05-16T16:00:34.783851Z,1684252834783
0.26818013191223145,-1.110404133796692,3.1338725090026855,2023-05-16T16:00:34.812673Z,1684252834812
0.13289164006710052,-1.142362117767334,3.1786136627197266,2023-05-16T16:00:34.830311Z,1684252834830
0.05938844755291939,-1.2286484241485596,3.1093714237213135,2023-05-16T16:00:34.843824Z,1684252834843
0.04660528525710106,-1.2350400686264038,3.1104366779327393,2023-05-16T16:00:34.863766Z,1684252834863
0.007190529722720385,-1.4001559019088745,3.126415729522705,2023-05-16T16:00:34.884005Z,1684252834883
0.08175898343324661,-1.8038908243179321,3.136003017425537,2023-05-16T16:00:34.916277Z,1684252834916
0.025300011038780212,-2.3993732929229736,2.853708028793335,2023-05-16T16:00:34.924606Z,1684252834924
-0.07803056389093399,-2.153297185897827,2.3647520542144775,2023-05-16T16:00:34.945769Z,1684252834945
-0.1909485012292862,-1.6696676015853882,2.1623520851135254,2023-05-16T16:00:34.964108Z,1684252834964
-0.3518033027648926,-1.6547539234161377,2.094175100326538,2023-05-16T16:00:34.984059Z,1684252834983
-0.32943278551101685,-2.3066952228546143,1.9375814199447632,2023-05-16T16:00:35.020524Z,1684252835020
-0.07376950979232788,-2.923482894897461,1.3772526979446411,2023-05-16T16:00:35.024230Z,1684252835024
-0.416784405708313,-1.2797811031341553,0.5293028950691223,2023-05-16T16:00:35.052727Z,1684252835052
-1.3211932182312012,-0.06857634335756302,0.2054627239704132,2023-05-16T16:00:35.064030Z,1684252835063
-2.12014102935791,-0.06857634335756302,-0.2515353858470917,2023-05-16T16:00:35.084136Z,1684252835084
-2.477004289627075,-0.2539322078227997,-1.1112031936645508,2023-05-16T16:00:35.111835Z,1684252835111
-2.8786087036132812,0.05392897129058838,-2.137052059173584,2023-05-16T16:00:35.127049Z,1684252835126
-3.9140448570251465,0.8848345875740051,-3.3162989616394043,2023-05-16T16:00:35.145918Z,1684252835145
-5.222188472747803,1.8478329181671143,-5.086767196655273,2023-05-16T16:00:35.167114Z,1684252835167
-6.286386966705322,2.9482502937316895,-7.400519847869873,2023-05-16T16:00:35.184711Z,1684252835184
-6.777473449707031,3.7823517322540283,-9.601354598999023,2023-05-16T16:00:35.217698Z,1684252835217
-6.553768157958984,3.783416986465454,-11.186466217041016,2023-05-16T16:00:35.228279Z,1684252835228
-6.5037007331848145,3.6609115600585938,-12.6597261428833,2023-05-16T16:00:35.244430Z,1684252835244
-6.458959579467773,4.665455341339111,-13.897562980651855,2023-05-16T16:00:35.264095Z,1684252835264
-5.649359226226807,6.840723514556885,-14.449369430541992,2023-05-16T16:00:35.285898Z,1684252835285
-3.9140448570251465,7.441532135009766,-14.546308517456055,2023-05-16T16:00:35.319300Z,1684252835319
-2.6698169708251953,5.11925745010376,-14.98306655883789,2023-05-16T16:00:35.324671Z,1684252835324
-2.2213408946990967,2.6659553050994873,-15.595592498779297,2023-05-16T16:00:35.345253Z,1684252835345
-1.6972312927246094,1.0669946670532227,-14.436586380004883,2023-05-16T16:00:35.364371Z,1684252835364
-1.7004270553588867,0.14980269968509674,-10.756099700927734,2023-05-16T16:00:35.384713Z,1684252835384
-1.9209367036819458,2.965294599533081,-9.112398147583008,2023-05-16T16:00:35.419548Z,1684252835419
-1.1699258089065552,3.4254884719848633,-9.115593910217285,2023-05-16T16:00:35.426232Z,1684252835426
-0.3411506712436676,2.3431804180145264,-8.588288307189941,2023-05-16T16:00:35.447631Z,1684252835447
-0.07483477145433426,1.3290495872497559,-7.329146862030029,2023-05-16T16:00:35.465004Z,1684252835464
0.025300011038780212,1.1799126863479614,-6.2915802001953125,2023-05-16T16:00:35.485138Z,1684252835484
0.10839057713747025,1.3013527393341064,-5.783449649810791,2023-05-16T16:00:35.517234Z,1684252835517
0.26285380125045776,0.6611292362213135,-5.610876560211182,2023-05-16T16:00:35.529795Z,1684252835529
0.3512706756591797,-0.43502703309059143,-5.425520896911621,2023-05-16T16:00:35.546496Z,1684252835546
0.3747064769268036,-0.5543365478515625,-5.282775402069092,2023-05-16T16:00:35.564673Z,1684252835564
0.16058848798274994,-0.09733846783638,-4.925912380218506,2023-05-16T16:00:35.585372Z,1684252835585
0.009321057237684727,0.4534028470516205,-4.4167160987854,2023-05-16T16:00:35.617966Z,1684252835617
-0.09294424951076508,0.35220280289649963,-3.634812593460083,2023-05-16T16:00:35.630354Z,1684252835630
-0.07483477145433426,0.03795001655817032,-2.400172233581543,2023-05-16T16:00:35.645437Z,1684252835645
-0.1387505829334259,-0.2059953510761261,-1.6363781690597534,2023-05-16T16:00:35.664774Z,1684252835664
-0.3326285779476166,0.8528767228126526,-1.1293126344680786,2023-05-16T16:00:35.686321Z,1684252835686
-0.38056543469429016,2.0310583114624023,-0.5285038948059082,2023-05-16T16:00:35.716721Z,1684252835716
-0.4870918095111847,2.583930015563965,-0.08855003863573074,2023-05-16T16:00:35.725305Z,1684252835725
-0.7342329621315002,2.557298421859741,0.27896592020988464,2023-05-16T16:00:35.747208Z,1684252835747
-0.9110667109489441,1.6390413045883179,1.0395641326904297,2023-05-16T16:00:35.765033Z,1684252835764
-1.1922963857650757,0.08482161909341812,1.9450381994247437,2023-05-16T16:00:35.785261Z,1684252835785
-1.5385069847106934,-2.6816680431365967,1.5966970920562744,2023-05-16T16:00:35.810702Z,1684252835810
-1.3957617282867432,-5.721930503845215,0.8882967233657837,2023-05-16T16:00:35.826250Z,1684252835826
-0.8492814302444458,-5.8582844734191895,1.5583475828170776,2023-05-16T16:00:35.846885Z,1684252835846
-0.38056543469429016,-4.79408597946167,2.502171039581299,2023-05-16T16:00:35.865326Z,1684252835865
-0.08442214131355286,-3.1056430339813232,3.350121021270752,2023-05-16T16:00:35.885997Z,1684252835885
0.11265163123607635,-1.0635325908660889,4.0819573402404785,2023-05-16T16:00:35.912664Z,1684252835912
0.00612526573240757,0.9508809447288513,4.935233116149902,2023-05-16T16:00:35.927677Z,1684252835927
-0.5637907981872559,2.910966157913208,5.270791530609131,2023-05-16T16:00:35.947310Z,1684252835947
-1.3574122190475464,4.500339508056641,5.255877494812012,2023-05-16T16:00:35.967173Z,1684252835967
-2.0583555698394775,4.673977375030518,5.667069435119629,2023-05-16T16:00:35.985447Z,1684252835985
-2.7081665992736816,3.119757652282715,6.364817142486572,2023-05-16T16:00:36.013674Z,1684252836013
-2.9063055515289307,1.0169273614883423,6.742985725402832,2023-05-16T16:00:36.027508Z,1684252836027
-2.746515989303589,-0.35513225197792053,6.788792133331299,2023-05-16T16:00:36.047512Z,1684252836047
-2.4397201538085938,-0.8185219764709473,6.784531116485596,2023-05-16T16:00:36.065696Z,1684252836065
-1.9997661113739014,-0.8281093239784241,6.859099388122559,2023-05-16T16:00:36.086028Z,1684252836085
-1.572595477104187,-0.5692502856254578,7.13180685043335,2023-05-16T16:00:36.112564Z,1684252836112
-1.1997531652450562,-0.7237134575843811,7.352316379547119,2023-05-16T16:00:36.126042Z,1684252836125
-0.8546077609062195,-1.353284239768982,7.243659496307373,2023-05-16T16:00:36.145706Z,1684252836145
-0.5020055174827576,-1.9647456407546997,6.742985725402832,2023-05-16T16:00:36.166009Z,1684252836165
-0.23888537287712097,-1.7431707382202148,6.24763822555542,2023-05-16T16:00:36.186109Z,1684252836185
-0.008788425475358963,-1.1242525577545166,5.925928592681885,2023-05-16T16:00:36.218510Z,1684252836218
0.04340949282050133,0.20626167953014374,5.605284214019775,2023-05-16T16:00:36.226936Z,1684252836226
-0.4316980838775635,0.7495461106300354,5.55415153503418,2023-05-16T16:00:36.247076Z,1684252836247
-0.27723485231399536,-0.5447492003440857,6.718484401702881,2023-05-16T16:00:36.267611Z,1684252836267
-0.026897907257080078,-1.062467336654663,7.2319416999816895,2023-05-16T16:00:36.286604Z,1684252836286
-0.30599698424339294,0.26165539026260376,6.709962368011475,2023-05-16T16:00:36.317166Z,1684252836317
-0.5829655528068542,0.8315714001655579,6.327532768249512,2023-05-16T16:00:36.327691Z,1684252836327
-0.6117276549339294,0.212653249502182,6.284922122955322,2023-05-16T16:00:36.347989Z,1684252836347
-0.34860754013061523,-0.7546061277389526,6.203962326049805,2023-05-16T16:00:36.367720Z,1684252836367
-0.03435475379228592,-1.6142739057540894,5.880122184753418,2023-05-16T16:00:36.385969Z,1684252836385
0.10519478470087051,-1.5940338373184204,5.667069435119629,2023-05-16T16:00:36.411315Z,1684252836411
0.23409168422222137,-1.2968252897262573,5.903557777404785,2023-05-16T16:00:36.425953Z,1684252836425
0.469514936208725,-1.4427664279937744,6.300901412963867,2023-05-16T16:00:36.445855Z,1684252836445
0.7081339955329895,-1.9498319625854492,6.244442462921143,2023-05-16T16:00:36.467478Z,1684252836467
0.9020119905471802,-3.211104154586792,5.784248352050781,2023-05-16T16:00:36.488114Z,1684252836488
1.2929637432098389,-4.667319297790527,4.992757320404053,2023-05-16T16:00:36.519029Z,1684252836518
1.833052396774292,-4.510725498199463,4.2555952072143555,2023-05-16T16:00:36.526508Z,1684252836526
2.0738019943237305,-3.467832565307617,4.26198673248291,2023-05-16T16:00:36.548798Z,1684252836548
2.095107316970825,-2.323739528656006,4.7754435539245605,2023-05-16T16:00:36.566097Z,1684252836565
1.827726125717163,-1.4054821729660034,5.058804035186768,2023-05-16T16:00:36.586138Z,1684252836586
1.651957631111145,-0.7908250689506531,4.583696365356445,2023-05-16T16:00:36.619999Z,1684252836619
1.2705931663513184,-0.530900776386261,3.9328203201293945,2023-05-16T16:00:36.627063Z,1684252836627
0.9744499325752258,-1.280846357345581,3.3064451217651367,2023-05-16T16:00:36.650186Z,1684252836650
0.6985466480255127,-1.7847161293029785,2.4702131748199463,2023-05-16T16:00:36.668571Z,1684252836668
0.5195823311805725,-1.7580845355987549,1.9056235551834106,2023-05-16T16:00:36.709615Z,1684252836709
0.5483444333076477,-1.6622107028961182,1.7021580934524536,2023-05-16T16:00:36.714342Z,1684252836714
0.5664539337158203,-1.1572757959365845,1.7277244329452515,2023-05-16T16:00:36.727543Z,1684252836727
0.4119907021522522,-0.4659196734428406,1.67552649974823,2023-05-16T16:00:36.746320Z,1684252836746
0.17763271927833557,-0.23049642145633698,1.6840486526489258,2023-05-16T16:00:36.768558Z,1684252836768
-0.09614004194736481,-0.3380880355834961,1.7266591787338257,2023-05-16T16:00:36.808553Z,1684252836808
-0.4221107065677643,-0.19747324287891388,1.5849791765213013,2023-05-16T16:00:36.812194Z,1684252836812
-0.6330329179763794,-0.23049642145633698,1.208941102027893,2023-05-16T16:00:36.828399Z,1684252836828
-0.8322372436523438,-0.18575534224510193,0.8552735447883606,2023-05-16T16:00:36.846549Z,1684252836846
-1.0676604509353638,0.06351634114980698,0.6816355586051941,2023-05-16T16:00:36.868448Z,1684252836868
-1.4543511867523193,0.3500722646713257,0.3237069845199585,2023-05-16T16:00:36.909002Z,1684252836908
-2.1275978088378906,0.7953524589538574,-0.5572660565376282,2023-05-16T16:00:36.911969Z,1684252836911
-2.939328670501709,1.3855085372924805,-1.3711274862289429,2023-05-16T16:00:36.928122Z,1684252836928
-3.887413263320923,2.0566246509552,-2.0401129722595215,2023-05-16T16:00:36.948524Z,1684252836948
-4.685295581817627,2.4209446907043457,-3.1160292625427246,2023-05-16T16:00:36.966576Z,1684252836966
-5.237102508544922,2.2835257053375244,-4.691554069519043,2023-05-16T16:00:36.990276Z,1684252836990
-5.846433162689209,2.215348958969116,-6.475870609283447,2023-05-16T16:00:37.020308Z,1684252837020
-6.683730602264404,3.000448226928711,-8.359256744384766,2023-05-16T16:00:37.027572Z,1684252837027
-7.579617023468018,3.3786168098449707,-9.50228500366211,2023-05-16T16:00:37.047241Z,1684252837047
-8.079225540161133,2.8790080547332764,-10.763557434082031,2023-05-16T16:00:37.068408Z,1684252837068
-8.068572998046875,2.741589069366455,-12.326298713684082,2023-05-16T16:00:37.087101Z,1684252837086
-7.6989264488220215,3.594865322113037,-12.701272010803223,2023-05-16T16:00:37.116961Z,1684252837116
-7.1737518310546875,5.0915608406066895,-12.779035568237305,2023-05-16T16:00:37.130184Z,1684252837130
-5.99876594543457,4.963728904724121,-13.142291069030762,2023-05-16T16:00:37.148929Z,1684252837148
-5.046420097351074,4.071038246154785,-13.363865852355957,2023-05-16T16:00:37.170713Z,1684252837170
-4.157990455627441,3.0430586338043213,-14.138312339782715,2023-05-16T16:00:37.205243Z,1684252837205
-3.376086711883545,1.467533826828003,-14.596375465393066,2023-05-16T16:00:37.210206Z,1684252837210
-3.6306848526000977,-1.2733895778656006,-13.185966491699219,2023-05-16T16:00:37.228926Z,1684252837228
-3.9779608249664307,-1.6962991952896118,-11.424020767211914,2023-05-16T16:00:37.250367Z,1684252837250
-3.539072036743164,1.4100096225738525,-9.833581924438477,2023-05-16T16:00:37.268179Z,1684252837268
-4.516983985900879,3.704587459564209,-9.560873985290527,2023-05-16T16:00:37.287735Z,1684252837287
-3.7446680068969727,3.2848734855651855,-9.57685375213623,2023-05-16T16:00:37.320101Z,1684252837320
-2.3502378463745117,1.3418327569961548,-9.165661811828613,2023-05-16T16:00:37.327342Z,1684252837327
-1.4032185077667236,-0.03129211813211441,-8.382692337036133,2023-05-16T16:00:37.351087Z,1684252837351
-0.7779088020324707,-0.9729851484298706,-7.496393203735352,2023-05-16T16:00:37.369118Z,1684252837369
-0.7246456146240234,-1.2222568988800049,-7.093723773956299,2023-05-16T16:00:37.404913Z,1684252837404
-0.9739173054695129,-1.3319790363311768,-6.83806037902832,2023-05-16T16:00:37.409101Z,1684252837409
-0.5936181545257568,-1.9061561822891235,-6.115811824798584,2023-05-16T16:00:37.429655Z,1684252837429
0.2905506491661072,-2.0222699642181396,-4.653204917907715,2023-05-16T16:00:37.449813Z,1684252837449
0.8029424548149109,-0.8558061718940735,-3.5027201175689697,2023-05-16T16:00:37.469232Z,1684252837469
0.8913593292236328,0.02197106182575226,-3.0595703125,2023-05-16T16:00:37.500780Z,1684252837500
0.4588623046875,-0.10159952193498611,-2.7943196296691895,2023-05-16T16:00:37.510813Z,1684252837510
0.1712411344051361,-0.35406699776649475,-1.9548919200897217,2023-05-16T16:00:37.529525Z,1684252837529
0.22450430691242218,0.8528767228126526,-1.018525242805481,2023-05-16T16:00:37.547363Z,1684252837547
1.0159951448440552,2.478469133377075,-0.17909744381904602,2023-05-16T16:00:37.567692Z,1684252837567
2.9068381786346436,2.3037657737731934,-0.0022636852227151394,2023-05-16T16:00:37.610579Z,1684252837610
2.5893895626068115,0.3777691125869751,-0.6094639897346497,2023-05-16T16:00:37.612600Z,1684252837612
3.266897201538086,1.157542109489441,-0.45500072836875916,2023-05-16T16:00:37.627462Z,1684252837627
4.31724739074707,0.8486156463623047,0.9351683259010315,2023-05-16T16:00:37.648884Z,1684252837648
2.2186777591705322,1.9117487668991089,0.5633913278579712,2023-05-16T16:00:37.667589Z,1684252837667
4.811529636383057,-0.4648544192314148,2.6172196865081787,2023-05-16T16:00:37.688129Z,1684252837688
4.8221821784973145,4.144541263580322,2.3754048347473145,2023-05-16T16:00:37.707997Z,1684252837707
3.3052468299865723,6.204761028289795,2.2944447994232178,2023-05-16T16:00:37.727656Z,1684252837727
6.178262710571289,-0.13675321638584137,1.8598171472549438,2023-05-16T16:00:37.747773Z,1684252837747
4.742287635803223,-6.6220784187316895,-2.365018367767334,2023-05-16T16:00:37.767982Z,1684252837767
1.778723955154419,-10.740387916564941,-5.858017921447754,2023-05-16T16:00:37.787946Z,1684252837787
0.8135951161384583,-0.296542763710022,-6.022068500518799,2023-05-16T16:00:37.810658Z,1684252837810
3.5321478843688965,5.556015491485596,-4.1312255859375,2023-05-16T16:00:37.827949Z,1684252837827
2.591520071029663,1.5229275226593018,-2.6153554916381836,2023-05-16T16:00:37.849313Z,1684252837849
-0.7012097835540771,-3.215365171432495,-0.8992156982421875,2023-05-16T16:00:37.867775Z,1684252837867
0.3086601495742798,0.14767217636108398,0.5378249883651733,2023-05-16T16:00:37.887869Z,1684252837887
-0.13768532872200012,0.6355628967285156,0.5452818274497986,2023-05-16T16:00:37.907803Z,1684252837907
-1.3616732358932495,-0.9570062160491943,0.451538622379303,2023-05-16T16:00:37.928186Z,1684252837928
-1.5757912397384644,-0.5032039284706116,1.0598042011260986,2023-05-16T16:00:37.947987Z,1684252837947
-1.0250499248504639,-0.31252172589302063,1.087501049041748,2023-05-16T16:00:37.967869Z,1684252837967
-1.1241194009780884,-0.45846283435821533,0.430233359336853,2023-05-16T16:00:37.987865Z,1684252837987
-1.6365113258361816,-0.4776375889778137,0.527172327041626,2023-05-16T16:00:38.007820Z,1684252838007
-1.6546207666397095,-0.16658060252666473,0.8030756115913391,2023-05-16T16:00:38.028607Z,1684252838028
-1.0484857559204102,-0.27843329310417175,0.9096019864082336,2023-05-16T16:00:38.048413Z,1684252838048
-0.9334372878074646,-0.19321219623088837,0.9969536066055298,2023-05-16T16:00:38.068008Z,1684252838067
-1.3201279640197754,-0.09520793706178665,1.1737873554229736,2023-05-16T16:00:38.088073Z,1684252838088
-1.736646056175232,0.20093534886837006,1.2749874591827393,2023-05-16T16:00:38.108278Z,1684252838108
-1.6833828687667847,-0.2539322078227997,1.2962926626205444,2023-05-16T16:00:38.128295Z,1684252838128
-1.0175931453704834,0.06884266436100006,0.90427565574646,2023-05-16T16:00:38.148137Z,1684252838148
-0.9387635588645935,-0.9271788597106934,0.5793702602386475,2023-05-16T16:00:38.168594Z,1684252838168
-0.945155143737793,-1.2371705770492554,0.45260387659072876,2023-05-16T16:00:38.188239Z,1684252838188
-1.109205722808838,-1.7133433818817139,0.31625014543533325,2023-05-16T16:00:38.210977Z,1684252838210
-1.2136015892028809,-0.7151913642883301,0.5420860648155212,2023-05-16T16:00:38.228267Z,1684252838228
-1.4522206783294678,2.7096312046051025,1.0715221166610718,2023-05-16T16:00:38.248293Z,1684252838248
-2.2927136421203613,4.595148086547852,1.8193371295928955,2023-05-16T16:00:38.268353Z,1684252838268
-2.5249412059783936,2.3634204864501953,2.567152261734009,2023-05-16T16:00:38.291383Z,1684252838291
-1.8005619049072266,0.6653903126716614,2.605501651763916,2023-05-16T16:00:38.311762Z,1684252838311
-2.592052698135376,0.5237102508544922,1.8896445035934448,2023-05-16T16:00:38.329629Z,1684252838329
-2.8679559230804443,-0.13675321638584137,1.201484203338623,2023-05-16T16:00:38.350317Z,1684252838350
-1.6226627826690674,-1.6728633642196655,1.251551628112793,2023-05-16T16:00:38.368432Z,1684252838368
-0.17923060059547424,-1.8347834348678589,1.4933664798736572,2023-05-16T16:00:38.388790Z,1684252838388
0.05086633935570717,-1.2968252897262573,1.6052191257476807,2023-05-16T16:00:38.411961Z,1684252838411
-0.27190855145454407,-1.0475536584854126,1.5146716833114624,2023-05-16T16:00:38.428566Z,1684252838428
-0.27297380566596985,-0.8227829933166504,1.184440016746521,2023-05-16T16:00:38.448533Z,1684252838448
-0.6245108246803284,-0.28375959396362305,1.2824442386627197,2023-05-16T16:00:38.468417Z,1684252838468
-1.0633994340896606,-0.2347574681043625,1.5849791765213013,2023-05-16T16:00:38.488701Z,1684252838488
-1.1241194009780884,-0.6683197617530823,1.7618129253387451,2023-05-16T16:00:38.511083Z,1684252838511
-0.5510076284408569,-1.2307789325714111,1.7522255182266235,2023-05-16T16:00:38.529020Z,1684252838528
0.030626330524683,-1.682450771331787,1.3740569353103638,2023-05-16T16:00:38.548795Z,1684252838548
0.1861548274755478,-1.5215959548950195,0.9905620217323303,2023-05-16T16:00:38.568772Z,1684252838568
0.3544664680957794,-1.57912015914917,0.9841704368591309,2023-05-16T16:00:38.588740Z,1684252838588
0.029561065137386322,-0.8313050866127014,1.0001493692398071,2023-05-16T16:00:38.615549Z,1684252838615
-0.6117276549339294,0.6696513295173645,1.2046799659729004,2023-05-16T16:00:38.628865Z,1684252838628
-0.7171887755393982,1.1831084489822388,1.348490595817566,2023-05-16T16:00:38.649252Z,1684252838649
-0.945155143737793,1.1937611103057861,1.2174631357192993,2023-05-16T16:00:38.668848Z,1684252838668
-1.3510205745697021,0.4193144142627716,0.8403598666191101,2023-05-16T16:00:38.689160Z,1684252838689
-0.9888309836387634,-0.22836589813232422,0.7114629745483398,2023-05-16T16:00:38.709510Z,1684252838709
0.08921582996845245,0.21904483437538147,0.7093324065208435,2023-05-16T16:00:38.729018Z,1684252838728
0.43755704164505005,0.4289017617702484,0.6358292102813721,2023-05-16T16:00:38.749276Z,1684252838749
0.015712639316916466,0.35646384954452515,0.36312174797058105,2023-05-16T16:00:38.769121Z,1684252838769
-0.9526119828224182,1.8457024097442627,0.5601955056190491,2023-05-16T16:00:38.788941Z,1684252838788
-0.7992140650749207,0.8912261724472046,1.2430294752120972,2023-05-16T16:00:38.809501Z,1684252838809
-0.33369383215904236,0.5716471076011658,1.3026843070983887,2023-05-16T16:00:38.829198Z,1684252838829
0.3214432895183563,1.1681947708129883,1.0448905229568481,2023-05-16T16:00:38.850432Z,1684252838850
0.5515402555465698,0.5620597004890442,0.8115977644920349,2023-05-16T16:00:38.870422Z,1684252838870
0.29161593317985535,-0.4318312406539917,0.37590491771698,2023-05-16T16:00:38.891955Z,1684252838891
0.16911059617996216,-0.6715155839920044,0.014780532568693161,2023-05-16T16:00:38.910679Z,1684252838910
0.012516847811639309,-0.45846283435821533,0.074435293674469,2023-05-16T16:00:38.929826Z,1684252838929
-0.1344895362854004,-0.3977428078651428,0.11065425723791122,2023-05-16T16:00:38.949619Z,1684252838949
-0.15579481422901154,-0.9058735966682434,-0.12476900219917297,2023-05-16T16:00:38.972065Z,1684252838972
0.06684529036283493,-0.9889641404151917,-0.29521119594573975,2023-05-16T16:00:38.993972Z,1684252838993
0.337422251701355,-0.7705850601196289,-0.08535424619913101,2023-05-16T16:00:39.009507Z,1684252839009
0.3608580529689789,-0.21345220506191254,0.10106688737869263,2023-05-16T16:00:39.029716Z,1684252839029
0.1669800728559494,-0.3008038103580475,0.1490037590265274,2023-05-16T16:00:39.051289Z,1684252839051
-0.036485280841588974,-0.8984166979789734,-0.114116370677948,2023-05-16T16:00:39.069733Z,1684252839069
0.021038956940174103,-1.0954904556274414,-0.44541335105895996,2023-05-16T16:00:39.092759Z,1684252839092
0.4119907021522522,-0.9261136054992676,-0.4113249182701111,2023-05-16T16:00:39.109771Z,1684252839109
0.550475001335144,-0.8078693151473999,-0.24727432429790497,2023-05-16T16:00:39.129468Z,1684252839129
0.32890015840530396,-0.29228171706199646,-0.2600574791431427,2023-05-16T16:00:39.149627Z,1684252839149
0.05725792050361633,0.31385329365730286,-0.011851058341562748,2023-05-16T16:00:39.174644Z,1684252839174
-0.2474074810743332,0.5844302773475647,0.27044379711151123,2023-05-16T16:00:39.198879Z,1684252839198
-0.43808966875076294,0.6483460664749146,0.15965639054775238,2023-05-16T16:00:39.212778Z,1684252839212
