ACC_X,ACC_Y,ACC_Z,DATE,UNIX_TIMESTAMP
0.3596041202545166,0.387967050075531,0.09679889678955078,2023-05-16T16:00:18.726076Z,1684252818725
-0.036313772201538086,0.22114115953445435,-0.03227996826171875,2023-05-16T16:00:18.744520Z,1684252818744
-0.29590463638305664,-0.05035102367401123,-0.029817581176757812,2023-05-16T16:00:18.768983Z,1684252818768
0.06793737411499023,-0.09961479902267456,0.2006235122680664,2023-05-16T16:00:18.788279Z,1684252818788
0.4648854732513428,-0.08737492561340332,0.5848579406738281,2023-05-16T16:00:18.804636Z,1684252818804
0.7138779163360596,-0.08269566297531128,0.7202177047729492,2023-05-16T16:00:18.824938Z,1684252818824
0.7403743267059326,-0.10674870014190674,0.561915397644043,2023-05-16T16:00:18.845669Z,1684252818845
0.7939308881759644,0.03466641902923584,0.2424182891845703,2023-05-16T16:00:18.868518Z,1684252818868
0.8793895244598389,0.2968524098396301,0.25969696044921875,2023-05-16T16:00:18.887970Z,1684252818887
0.45486295223236084,0.16755348443984985,0.11158180236816406,2023-05-16T16:00:18.902918Z,1684252818902
0.1664586067199707,-0.17215758562088013,0.07457637786865234,2023-05-16T16:00:18.924766Z,1684252818924
0.22343158721923828,-0.3844749629497528,0.04620361328125,2023-05-16T16:00:18.943627Z,1684252818943
0.52445387840271,0.004454672336578369,-0.03227806091308594,2023-05-16T16:00:18.968653Z,1684252818968
0.8451627492904663,0.47912925481796265,0.36574459075927734,2023-05-16T16:00:18.984171Z,1684252818984
0.6728907823562622,0.34730589389801025,0.5407047271728516,2023-05-16T16:00:19.005382Z,1684252819005
0.7708625793457031,0.3179754614830017,0.43339061737060547,2023-05-16T16:00:19.025249Z,1684252819025
0.6522446870803833,0.3801726698875427,0.2619762420654297,2023-05-16T16:00:19.043364Z,1684252819043
0.4178004264831543,0.10732215642929077,0.2551736831665039,2023-05-16T16:00:19.062956Z,1684252819062
0.4901469945907593,-0.14054343104362488,0.2389049530029297,2023-05-16T16:00:19.086733Z,1684252819086
0.5226322412490845,0.13785088062286377,0.29425716400146484,2023-05-16T16:00:19.103907Z,1684252819103
0.5387649536132812,0.57969069480896,0.5063390731811523,2023-05-16T16:00:19.125250Z,1684252819125
0.7022525072097778,0.7213379740715027,0.7303171157836914,2023-05-16T16:00:19.143222Z,1684252819143
0.5127456188201904,0.6770817041397095,0.7678613662719727,2023-05-16T16:00:19.167857Z,1684252819167
0.2561354637145996,0.4519161581993103,0.5976848602294922,2023-05-16T16:00:19.183913Z,1684252819183
0.18169796466827393,0.0699957013130188,0.34539031982421875,2023-05-16T16:00:19.204303Z,1684252819204
0.00979602336883545,-0.3594401478767395,0.2925539016723633,2023-05-16T16:00:19.225294Z,1684252819225
0.11287546157836914,0.07708176970481873,0.3597888946533203,2023-05-16T16:00:19.243136Z,1684252819243
-0.10541152954101562,0.23050355911254883,0.31958961486816406,2023-05-16T16:00:19.267927Z,1684252819267
-0.14726579189300537,-0.3436790108680725,-0.04497051239013672,2023-05-16T16:00:19.286311Z,1684252819286
0.019508957862854004,-0.7546131610870361,0.054320335388183594,2023-05-16T16:00:19.305538Z,1684252819305
0.24868524074554443,-0.49910101294517517,0.014612197875976562,2023-05-16T16:00:19.323694Z,1684252819323
0.09909689426422119,-0.14566054940223694,0.24747657775878906,2023-05-16T16:00:19.343424Z,1684252819343
-0.5322054624557495,-0.40206393599510193,0.0963735580444336,2023-05-16T16:00:19.367671Z,1684252819367
-1.2148343324661255,-0.976594090461731,-0.7153530120849609,2023-05-16T16:00:19.384071Z,1684252819383
-1.0941343307495117,-1.0721551179885864,-0.6635799407958984,2023-05-16T16:00:19.405321Z,1684252819405
-0.3748058080673218,-0.480853408575058,-0.030260086059570312,2023-05-16T16:00:19.423926Z,1684252819423
-0.49529755115509033,-0.6002447009086609,0.37386131286621094,2023-05-16T16:00:19.445599Z,1684252819445
-0.7873882055282593,-1.4699954986572266,0.05562877655029297,2023-05-16T16:00:19.467804Z,1684252819467
0.1075972318649292,-1.7063008546829224,-0.5258674621582031,2023-05-16T16:00:19.486033Z,1684252819485
1.1028553247451782,-1.1784029006958008,-0.7845573425292969,2023-05-16T16:00:19.506056Z,1684252819505
1.2981936931610107,-0.2946384847164154,-0.36975955963134766,2023-05-16T16:00:19.525661Z,1684252819525
0.5983775854110718,-0.45390379428863525,-0.19597625732421875,2023-05-16T16:00:19.545534Z,1684252819545
0.27656084299087524,-0.7349544763565063,-0.7186613082885742,2023-05-16T16:00:19.567907Z,1684252819567
1.445456862449646,0.3812541663646698,-0.9067821502685547,2023-05-16T16:00:19.586778Z,1684252819586
1.1445683240890503,1.8312885761260986,0.2345895767211914,2023-05-16T16:00:19.605354Z,1684252819605
0.24423906207084656,2.5770316123962402,0.9733905792236328,2023-05-16T16:00:19.626271Z,1684252819626
0.5962704420089722,2.1851000785827637,0.7242727279663086,2023-05-16T16:00:19.643726Z,1684252819643
1.3993078470230103,1.9012246131896973,0.2316732406616211,2023-05-16T16:00:19.670690Z,1684252819670
2.25468373298645,2.0218138694763184,0.6557779312133789,2023-05-16T16:00:19.684097Z,1684252819684
2.448641538619995,1.0096638202667236,0.9140205383300781,2023-05-16T16:00:19.705756Z,1684252819705
2.2482216358184814,-0.26151004433631897,-0.05057048797607422,2023-05-16T16:00:19.723773Z,1684252819723
2.8108294010162354,-0.24177837371826172,-1.1640911102294922,2023-05-16T16:00:19.745841Z,1684252819745
2.3432199954986572,0.2015635371208191,-0.6821880340576172,2023-05-16T16:00:19.767408Z,1684252819767
1.462049126625061,1.1754361391067505,-0.8988304138183594,2023-05-16T16:00:19.786353Z,1684252819786
1.5970431566238403,1.2570369243621826,-0.6140804290771484,2023-05-16T16:00:19.804452Z,1684252819804
2.0884227752685547,0.40924111008644104,-0.3084535598754883,2023-05-16T16:00:19.825727Z,1684252819825
2.1820967197418213,0.5765774250030518,-0.18323802947998047,2023-05-16T16:00:19.845722Z,1684252819845
2.2622761726379395,0.6712476015090942,0.6162109375,2023-05-16T16:00:19.867923Z,1684252819867
2.2824337482452393,-0.08602392673492432,1.0587778091430664,2023-05-16T16:00:19.883873Z,1684252819883
1.4975578784942627,-0.5107385516166687,0.7225847244262695,2023-05-16T16:00:19.904096Z,1684252819904
0.5296844244003296,-0.23637863993644714,-0.30223560333251953,2023-05-16T16:00:19.926259Z,1684252819926
-0.3974118232727051,-0.2533176839351654,0.6659135818481445,2023-05-16T16:00:19.944241Z,1684252819944
-1.5649513006210327,-0.24825957417488098,1.1783161163330078,2023-05-16T16:00:19.968811Z,1684252819968
-1.3928990364074707,0.0527363121509552,1.548935890197754,2023-05-16T16:00:19.987010Z,1684252819986
-1.2894933223724365,0.5605189204216003,2.051218032836914,2023-05-16T16:00:20.005927Z,1684252820005
-1.7390472888946533,1.2792142629623413,2.3673200607299805,2023-05-16T16:00:20.026355Z,1684252820026
-2.2229082584381104,1.4641163349151611,2.858194351196289,2023-05-16T16:00:20.046548Z,1684252820046
-2.727329969406128,1.242111086845398,3.1753463745117188,2023-05-16T16:00:20.067144Z,1684252820067
-3.4760818481445312,0.5304818749427795,4.018829345703125,2023-05-16T16:00:20.085619Z,1684252820085
-4.518812656402588,-0.38591867685317993,4.428774833679199,2023-05-16T16:00:20.106287Z,1684252820106
-4.771539688110352,-0.3733980655670166,5.699342727661133,2023-05-16T16:00:20.125947Z,1684252820125
-5.295914173126221,-0.5489764213562012,6.720625877380371,2023-05-16T16:00:20.145529Z,1684252820145
-5.871718883514404,-1.445096731185913,7.294952392578125,2023-05-16T16:00:20.169562Z,1684252820169
-6.226391315460205,-2.9930458068847656,7.00971794128418,2023-05-16T16:00:20.184616Z,1684252820184
-6.753983020782471,-4.910573959350586,5.536530494689941,2023-05-16T16:00:20.206292Z,1684252820206
-7.975931167602539,-7.513078212738037,4.540839195251465,2023-05-16T16:00:20.226541Z,1684252820226
-7.818472862243652,-9.592199325561523,2.871217727661133,2023-05-16T16:00:20.246128Z,1684252820246
-6.537397384643555,-10.53023624420166,0.6771373748779297,2023-05-16T16:00:20.268537Z,1684252820268
-5.345949172973633,-11.461066246032715,0.26023101806640625,2023-05-16T16:00:20.286350Z,1684252820286
-2.867356300354004,-11.241602897644043,-0.531214714050293,2023-05-16T16:00:20.306295Z,1684252820306
-0.8220701217651367,-10.7510347366333,-0.9821920394897461,2023-05-16T16:00:20.324599Z,1684252820324
0.8544684648513794,-10.288376808166504,-2.5331873893737793,2023-05-16T16:00:20.346642Z,1684252820346
1.7812563180923462,-9.948345184326172,-3.7404470443725586,2023-05-16T16:00:20.369408Z,1684252820369
1.9275147914886475,-9.83024787902832,-4.3911004066467285,2023-05-16T16:00:20.384774Z,1684252820384
1.7132503986358643,-9.608606338500977,-5.482892990112305,2023-05-16T16:00:20.406643Z,1684252820406
2.538729667663574,-9.20962142944336,-6.946703910827637,2023-05-16T16:00:20.426336Z,1684252820426
2.1717700958251953,-9.303443908691406,-6.496077537536621,2023-05-16T16:00:20.446504Z,1684252820446
2.520726442337036,-9.904888153076172,-5.735721588134766,2023-05-16T16:00:20.469351Z,1684252820469
3.952475070953369,-11.535425186157227,-4.956820011138916,2023-05-16T16:00:20.486272Z,1684252820486
3.590787410736084,-12.452195167541504,-6.602055549621582,2023-05-16T16:00:20.506640Z,1684252820506
3.5002551078796387,-12.034085273742676,-6.598039627075195,2023-05-16T16:00:20.527545Z,1684252820527
4.183650970458984,-11.562047004699707,-5.966477394104004,2023-05-16T16:00:20.546591Z,1684252820546
4.910141944885254,-11.3065185546875,-4.946613311767578,2023-05-16T16:00:20.567473Z,1684252820567
5.904401779174805,-10.035053253173828,-4.421767711639404,2023-05-16T16:00:20.585068Z,1684252820584
6.825315475463867,-10.289419174194336,-5.504725933074951,2023-05-16T16:00:20.606794Z,1684252820606
6.473287582397461,-9.388864517211914,-5.773900032043457,2023-05-16T16:00:20.626868Z,1684252820626
7.645290374755859,-7.133245944976807,-5.572159767150879,2023-05-16T16:00:20.645583Z,1684252820645
10.485431671142578,-4.327677249908447,-2.7737021446228027,2023-05-16T16:00:20.671310Z,1684252820671
10.573930740356445,-2.232522487640381,-1.8329968452453613,2023-05-16T16:00:20.686841Z,1684252820686
12.925346374511719,-0.6486139297485352,-3.4457945823669434,2023-05-16T16:00:20.705385Z,1684252820705
9.684099197387695,-2.2578125,-3.0055556297302246,2023-05-16T16:00:20.727345Z,1684252820727
7.123895645141602,-3.3566951751708984,-4.076463222503662,2023-05-16T16:00:20.747513Z,1684252820747
8.210040092468262,-2.724534511566162,-4.489861965179443,2023-05-16T16:00:20.779696Z,1684252820779
11.530864715576172,-1.8210196495056152,-3.5033388137817383,2023-05-16T16:00:20.785381Z,1684252820785
12.47842788696289,-0.6082210540771484,-3.019886016845703,2023-05-16T16:00:20.808577Z,1684252820808
12.032913208007812,0.9874715805053711,-4.159206390380859,2023-05-16T16:00:20.826490Z,1684252820826
10.588232040405273,1.0133543014526367,-7.000846862792969,2023-05-16T16:00:20.845396Z,1684252820845
11.642414093017578,-0.012382984161376953,-8.727373123168945,2023-05-16T16:00:20.868330Z,1684252820868
13.650785446166992,-1.3678388595581055,-10.947209358215332,2023-05-16T16:00:20.887089Z,1684252820887
14.287946701049805,-2.4217329025268555,-13.80329704284668,2023-05-16T16:00:20.905605Z,1684252820905
14.984270095825195,-3.2626824378967285,-15.01085090637207,2023-05-16T16:00:20.927267Z,1684252820927
17.384748458862305,-5.897889614105225,-16.431373596191406,2023-05-16T16:00:20.946889Z,1684252820946
20.688220977783203,-10.30982780456543,-22.139835357666016,2023-05-16T16:00:20.969501Z,1684252820969
21.157005310058594,-16.034317016601562,-26.032793045043945,2023-05-16T16:00:20.987385Z,1684252820987
19.68678092956543,-22.049081802368164,-26.997726440429688,2023-05-16T16:00:21.005524Z,1684252821005
18.377426147460938,-29.061925888061523,-26.189504623413086,2023-05-16T16:00:21.025537Z,1684252821025
18.4991512298584,-38.01848602294922,-22.95479965209961,2023-05-16T16:00:21.046940Z,1684252821046
17.488056182861328,-45.29951858520508,-21.877161026000977,2023-05-16T16:00:21.068781Z,1684252821068
15.090685844421387,-50.58078384399414,-21.148548126220703,2023-05-16T16:00:21.087172Z,1684252821087
14.418896675109863,-54.43619155883789,-20.74984359741211,2023-05-16T16:00:21.106047Z,1684252821105
14.624385833740234,-57.235816955566406,-20.870973587036133,2023-05-16T16:00:21.127014Z,1684252821126
14.785479545593262,-58.67265319824219,-23.61172103881836,2023-05-16T16:00:21.147201Z,1684252821147
14.342390060424805,-57.043277740478516,-25.536035537719727,2023-05-16T16:00:21.170086Z,1684252821170
15.122486114501953,-53.22895431518555,-22.477174758911133,2023-05-16T16:00:21.187593Z,1684252821187
16.385704040527344,-49.97351837158203,-20.835025787353516,2023-05-16T16:00:21.207016Z,1684252821206
12.314695358276367,-42.165462493896484,-16.561893463134766,2023-05-16T16:00:21.226309Z,1684252821226
5.947147369384766,-36.35592269897461,-10.182337760925293,2023-05-16T16:00:21.247339Z,1684252821247
2.299752950668335,-30.965694427490234,-6.115848541259766,2023-05-16T16:00:21.269440Z,1684252821269
0.09623682498931885,-26.6044921875,-3.99190616607666,2023-05-16T16:00:21.287366Z,1684252821287
-1.5174682140350342,-24.52980613708496,-3.0238656997680664,2023-05-16T16:00:21.308420Z,1684252821308
-3.9565494060516357,-22.627662658691406,-2.0224461555480957,2023-05-16T16:00:21.326037Z,1684252821325
-5.968062877655029,-19.81194496154785,-2.6802802085876465,2023-05-16T16:00:21.348316Z,1684252821348
-6.897481441497803,-16.114778518676758,-3.1944499015808105,2023-05-16T16:00:21.381589Z,1684252821381
-7.7135796546936035,-12.415212631225586,-4.718036651611328,2023-05-16T16:00:21.385988Z,1684252821385
-8.406942367553711,-8.84670639038086,-4.720688343048096,2023-05-16T16:00:21.410269Z,1684252821410
-6.987626552581787,-6.016941070556641,-3.846425771713257,2023-05-16T16:00:21.426476Z,1684252821426
-3.7828636169433594,-4.630727767944336,-3.2792625427246094,2023-05-16T16:00:21.464954Z,1684252821464
-2.264561176300049,-4.458542823791504,-3.4165396690368652,2023-05-16T16:00:21.469157Z,1684252821469
-1.777482032775879,-4.325797080993652,-2.227400302886963,2023-05-16T16:00:21.489561Z,1684252821489
-1.1996850967407227,-3.4557037353515625,-2.394862651824951,2023-05-16T16:00:21.507966Z,1684252821507
-0.34941959381103516,-3.241868495941162,-2.1472692489624023,2023-05-16T16:00:21.525957Z,1684252821525
0.16078853607177734,-2.7095000743865967,-1.5189270973205566,2023-05-16T16:00:21.551615Z,1684252821551
1.061192274093628,-2.4371490478515625,-1.1871118545532227,2023-05-16T16:00:21.578346Z,1684252821578
1.148571491241455,-3.063124656677246,-1.52642822265625,2023-05-16T16:00:21.587769Z,1684252821587
0.5835890769958496,-3.387044906616211,-2.845613956451416,2023-05-16T16:00:21.609875Z,1684252821609
0.5542855262756348,-2.8235058784484863,-0.9438261985778809,2023-05-16T16:00:21.628045Z,1684252821627
0.5984108448028564,-1.5108529329299927,0.7828474044799805,2023-05-16T16:00:21.646299Z,1684252821646
0.809354305267334,-1.6807541847229004,0.8670587539672852,2023-05-16T16:00:21.680051Z,1684252821679
-0.4456479549407959,-2.9613471031188965,-0.07476139068603516,2023-05-16T16:00:21.688212Z,1684252821688
-1.3774926662445068,-3.7248291969299316,-3.178562641143799,2023-05-16T16:00:21.710313Z,1684252821710
0.5733780860900879,-3.670902729034424,-1.0207176208496094,2023-05-16T16:00:21.728144Z,1684252821728
0.626198410987854,-3.256826877593994,1.0955963134765625,2023-05-16T16:00:21.747593Z,1684252821747
-0.8078343868255615,-4.592502117156982,2.6913251876831055,2023-05-16T16:00:21.769971Z,1684252821769
-1.3596324920654297,-6.689849376678467,3.082341194152832,2023-05-16T16:00:21.788258Z,1684252821788
0.47121602296829224,-7.535338401794434,0.6430244445800781,2023-05-16T16:00:21.807806Z,1684252821807
2.065861225128174,-7.063607692718506,1.6119356155395508,2023-05-16T16:00:21.827269Z,1684252821827
2.254810094833374,-5.049731254577637,4.240476608276367,2023-05-16T16:00:21.848136Z,1684252821848
1.9143996238708496,-2.227393865585327,8.016757011413574,2023-05-16T16:00:21.871338Z,1684252821871
3.188856601715088,-3.1031315326690674,10.657745361328125,2023-05-16T16:00:21.888172Z,1684252821888
3.219008207321167,-5.266112804412842,11.141477584838867,2023-05-16T16:00:21.908085Z,1684252821908
2.8339343070983887,-5.632315635681152,11.10986328125,2023-05-16T16:00:21.928153Z,1684252821928
3.1170692443847656,-5.990242958068848,10.080126762390137,2023-05-16T16:00:21.948537Z,1684252821948
3.4847493171691895,-6.624493598937988,9.13286018371582,2023-05-16T16:00:21.970110Z,1684252821970
3.493894338607788,-7.747345447540283,8.278465270996094,2023-05-16T16:00:21.988310Z,1684252821988
4.841339111328125,-8.725798606872559,6.726777076721191,2023-05-16T16:00:22.007926Z,1684252822007
5.665139675140381,-9.421323776245117,5.436128616333008,2023-05-16T16:00:22.028253Z,1684252822028
5.874463081359863,-10.130026817321777,3.565999984741211,2023-05-16T16:00:22.048317Z,1684252822048
7.109888076782227,-10.849647521972656,1.6932544708251953,2023-05-16T16:00:22.069888Z,1684252822069
6.309941291809082,-12.152129173278809,1.0826501846313477,2023-05-16T16:00:22.087407Z,1684252822087
7.262543678283691,-12.42630672454834,-0.8731584548950195,2023-05-16T16:00:22.108244Z,1684252822108
8.3928861618042,-11.829907417297363,-2.5755481719970703,2023-05-16T16:00:22.128145Z,1684252822128
8.273426055908203,-11.036460876464844,-4.234406471252441,2023-05-16T16:00:22.148293Z,1684252822148
9.081328392028809,-10.031824111938477,-4.340940952301025,2023-05-16T16:00:22.169907Z,1684252822169
9.94559097290039,-9.382084846496582,-3.7957334518432617,2023-05-16T16:00:22.189299Z,1684252822189
10.257598876953125,-8.128599166870117,-3.6314048767089844,2023-05-16T16:00:22.208304Z,1684252822208
9.524714469909668,-6.265242576599121,-3.352905750274658,2023-05-16T16:00:22.230577Z,1684252822230
9.273530960083008,-4.648313522338867,-4.463473320007324,2023-05-16T16:00:22.266257Z,1684252822266
8.245924949645996,-4.610249996185303,-5.048074722290039,2023-05-16T16:00:22.270403Z,1684252822270
7.205516338348389,-5.311422348022461,-4.877352714538574,2023-05-16T16:00:22.286933Z,1684252822286
7.714827060699463,-5.081236839294434,-4.646994590759277,2023-05-16T16:00:22.309757Z,1684252822309
8.361533164978027,-5.107940673828125,-3.389131546020508,2023-05-16T16:00:22.327386Z,1684252822327
8.018966674804688,-5.363187789916992,-2.5903406143188477,2023-05-16T16:00:22.367312Z,1684252822367
7.448233604431152,-4.855991840362549,-3.879185199737549,2023-05-16T16:00:22.370239Z,1684252822370
7.871623992919922,-4.872952461242676,-4.283352375030518,2023-05-16T16:00:22.389956Z,1684252822389
7.386702537536621,-5.204960346221924,-4.316638946533203,2023-05-16T16:00:22.409242Z,1684252822409
6.328336715698242,-5.043433666229248,-3.784921169281006,2023-05-16T16:00:22.429818Z,1684252822429
6.735872268676758,-3.8928823471069336,-2.7554073333740234,2023-05-16T16:00:22.463565Z,1684252822463
5.851864814758301,-3.2140426635742188,-1.3932366371154785,2023-05-16T16:00:22.468730Z,1684252822468
4.780574321746826,-3.1477489471435547,-2.0817971229553223,2023-05-16T16:00:22.497237Z,1684252822497
5.240453720092773,-2.752054452896118,-4.043044090270996,2023-05-16T16:00:22.508388Z,1684252822508
5.311307430267334,-2.546875476837158,-4.666882038116455,2023-05-16T16:00:22.529970Z,1684252822529
5.613036632537842,-2.9436194896698,-4.409990310668945,2023-05-16T16:00:22.564284Z,1684252822564
6.2399396896362305,-2.969616651535034,-2.6945300102233887,2023-05-16T16:00:22.568679Z,1684252822568
5.543816089630127,-1.4689669609069824,-2.9074041843414307,2023-05-16T16:00:22.594184Z,1684252822594
4.185862064361572,-0.39931797981262207,-3.8108208179473877,2023-05-16T16:00:22.607748Z,1684252822607
4.082736015319824,0.0653613805770874,-3.8445699214935303,2023-05-16T16:00:22.629336Z,1684252822629
3.8296847343444824,-0.14586591720581055,-6.269143581390381,2023-05-16T16:00:22.650525Z,1684252822650
4.65833044052124,-1.3067526817321777,-9.31163215637207,2023-05-16T16:00:22.680801Z,1684252822680
4.0821332931518555,-2.3950304985046387,-10.596969604492188,2023-05-16T16:00:22.688927Z,1684252822688
4.19128942489624,-2.1099798679351807,-9.8329439163208,2023-05-16T16:00:22.712614Z,1684252822712
4.278439998626709,-1.0459799766540527,-9.993806838989258,2023-05-16T16:00:22.729604Z,1684252822729
4.4566330909729,-1.120269775390625,-11.690511703491211,2023-05-16T16:00:22.751025Z,1684252822750
5.9044084548950195,-2.0340237617492676,-15.104047775268555,2023-05-16T16:00:22.779791Z,1684252822779
8.138717651367188,-3.376542568206787,-19.89216423034668,2023-05-16T16:00:22.790298Z,1684252822790
11.273069381713867,-6.176029205322266,-24.781845092773438,2023-05-16T16:00:22.811929Z,1684252822811
17.118709564208984,-10.569053649902344,-31.735492706298828,2023-05-16T16:00:22.829720Z,1684252822829
19.649085998535156,-14.955146789550781,-33.457462310791016,2023-05-16T16:00:22.862822Z,1684252822862
20.011690139770508,-21.82851791381836,-33.39031219482422,2023-05-16T16:00:22.869664Z,1684252822869
20.47521209716797,-33.52671813964844,-35.463661193847656,2023-05-16T16:00:22.893496Z,1684252822893
21.411312103271484,-49.1363525390625,-36.04491424560547,2023-05-16T16:00:22.910114Z,1684252822910
23.4228572845459,-60.75052261352539,-33.45819854736328,2023-05-16T16:00:22.929931Z,1684252822929
23.279754638671875,-62.44908905029297,-28.79212188720703,2023-05-16T16:00:22.969974Z,1684252822969
21.804340362548828,-65.06952667236328,-29.147090911865234,2023-05-16T16:00:22.974482Z,1684252822974
22.907909393310547,-71.78337097167969,-28.464832305908203,2023-05-16T16:00:22.987907Z,1684252822987
21.547441482543945,-71.36152648925781,-25.280542373657227,2023-05-16T16:00:23.008085Z,1684252823007
18.073076248168945,-65.39165496826172,-26.14728355407715,2023-05-16T16:00:23.028499Z,1684252823028
17.493093490600586,-60.697837829589844,-26.471355438232422,2023-05-16T16:00:23.061633Z,1684252823061
16.416181564331055,-58.22342300415039,-23.89685821533203,2023-05-16T16:00:23.069466Z,1684252823069
11.914629936218262,-48.54353332519531,-14.478081703186035,2023-05-16T16:00:23.095696Z,1684252823095
8.83202838897705,-41.56074523925781,-13.079607963562012,2023-05-16T16:00:23.110025Z,1684252823109
5.2975616455078125,-35.98854446411133,-9.565046310424805,2023-05-16T16:00:23.128613Z,1684252823128
3.59971284866333,-31.99616241455078,-6.358822822570801,2023-05-16T16:00:23.170363Z,1684252823170
-0.14212071895599365,-27.501365661621094,-1.6812782287597656,2023-05-16T16:00:23.173266Z,1684252823173
-3.0349578857421875,-23.6378231048584,-1.239945411682129,2023-05-16T16:00:23.188250Z,1684252823188
-5.038876533508301,-20.422475814819336,-2.5831704139709473,2023-05-16T16:00:23.208232Z,1684252823208
-8.00311279296875,-17.20781898498535,-2.3413877487182617,2023-05-16T16:00:23.230792Z,1684252823230
-8.10943603515625,-13.33723258972168,-1.5256876945495605,2023-05-16T16:00:23.266334Z,1684252823266
-5.5923171043396,-9.832536697387695,-0.662015438079834,2023-05-16T16:00:23.272643Z,1684252823272
-5.348499298095703,-7.906413555145264,-0.8509154319763184,2023-05-16T16:00:23.291385Z,1684252823288
-5.169627666473389,-6.699293613433838,-1.0333104133605957,2023-05-16T16:00:23.310081Z,1684252823310
-4.574145793914795,-6.374006748199463,-0.5814971923828125,2023-05-16T16:00:23.330366Z,1684252823330
-3.31302547454834,-5.960960388183594,-0.4498567581176758,2023-05-16T16:00:23.360164Z,1684252823360
-2.5628886222839355,-5.382146835327148,-0.11463737487792969,2023-05-16T16:00:23.374353Z,1684252823374
-1.994283676147461,-4.512430191040039,-0.09493637084960938,2023-05-16T16:00:23.389017Z,1684252823388
-1.6395325660705566,-4.131836891174316,-0.575955867767334,2023-05-16T16:00:23.408743Z,1684252823408
-1.605358600616455,-4.497848033905029,-1.2095952033996582,2023-05-16T16:00:23.430176Z,1684252823430
-0.7778263092041016,-5.450080394744873,-1.5320773124694824,2023-05-16T16:00:23.454626Z,1684252823454
-0.010525226593017578,-6.423101425170898,-1.977726936340332,2023-05-16T16:00:23.470317Z,1684252823470
0.6340863704681396,-7.252126693725586,-3.1727466583251953,2023-05-16T16:00:23.490355Z,1684252823490
1.2156484127044678,-7.765344142913818,-4.441546440124512,2023-05-16T16:00:23.509491Z,1684252823509
2.84230637550354,-7.931293487548828,-3.206831455230713,2023-05-16T16:00:23.529015Z,1684252823528
2.5967018604278564,-7.83438777923584,-1.307096004486084,2023-05-16T16:00:23.554265Z,1684252823554
2.2731082439422607,-7.2592692375183105,-0.5289859771728516,2023-05-16T16:00:23.570331Z,1684252823570
1.9652941226959229,-6.47161865234375,0.905827522277832,2023-05-16T16:00:23.588982Z,1684252823588
0.8247622847557068,-4.846857070922852,1.654402732849121,2023-05-16T16:00:23.610263Z,1684252823610
1.5636929273605347,-3.779818534851074,4.547812461853027,2023-05-16T16:00:23.629316Z,1684252823629
2.0091605186462402,-5.057671546936035,9.122213363647461,2023-05-16T16:00:23.654563Z,1684252823654
1.036332368850708,-7.511453151702881,9.97998046875,2023-05-16T16:00:23.670509Z,1684252823670
2.214059591293335,-8.24940299987793,9.772228240966797,2023-05-16T16:00:23.690312Z,1684252823690
5.299767971038818,-8.668825149536133,10.823958396911621,2023-05-16T16:00:23.710377Z,1684252823710
7.714174270629883,-10.52766227722168,11.722341537475586,2023-05-16T16:00:23.730993Z,1684252823730
9.05046558380127,-11.869392395019531,8.927294731140137,2023-05-16T16:00:23.754541Z,1684252823754
10.130064964294434,-10.083173751831055,6.636682510375977,2023-05-16T16:00:23.769452Z,1684252823769
11.433842658996582,-7.87800931930542,7.689584732055664,2023-05-16T16:00:23.789489Z,1684252823789
13.339146614074707,-7.4460601806640625,6.914107322692871,2023-05-16T16:00:23.810526Z,1684252823810
13.494546890258789,-7.573630332946777,3.7798538208007812,2023-05-16T16:00:23.830280Z,1684252823830
12.507575988769531,-7.0938286781311035,0.45672130584716797,2023-05-16T16:00:23.854748Z,1684252823854
11.16940689086914,-6.56728982925415,-1.6588530540466309,2023-05-16T16:00:23.874462Z,1684252823874
9.676774024963379,-6.476839065551758,-2.642808437347412,2023-05-16T16:00:23.890761Z,1684252823890
9.337722778320312,-6.450170516967773,-3.064639091491699,2023-05-16T16:00:23.911956Z,1684252823911
9.463536262512207,-6.067957878112793,-3.0346784591674805,2023-05-16T16:00:23.931023Z,1684252823930
9.352846145629883,-5.983035087585449,-2.4478259086608887,2023-05-16T16:00:23.963601Z,1684252823963
9.334527969360352,-6.252657890319824,-1.9583330154418945,2023-05-16T16:00:23.971215Z,1684252823971
9.577027320861816,-6.6352338790893555,-1.446861743927002,2023-05-16T16:00:23.996104Z,1684252823995
10.068253517150879,-6.548029899597168,-2.2519006729125977,2023-05-16T16:00:24.011590Z,1684252824011
9.879836082458496,-5.7412190437316895,-3.325435161590576,2023-05-16T16:00:24.032251Z,1684252824032
8.986217498779297,-4.76099157333374,-3.2047367095947266,2023-05-16T16:00:24.063485Z,1684252824063
8.4418363571167,-4.474153995513916,-2.2258172035217285,2023-05-16T16:00:24.072627Z,1684252824072
9.037004470825195,-5.039717674255371,-2.8794898986816406,2023-05-16T16:00:24.091200Z,1684252824091
8.417943954467773,-5.45389461517334,-4.255703449249268,2023-05-16T16:00:24.110103Z,1684252824109
7.496691703796387,-4.7512617111206055,-4.4605607986450195,2023-05-16T16:00:24.131800Z,1684252824131
7.6862993240356445,-3.9878993034362793,-3.4161605834960938,2023-05-16T16:00:24.164776Z,1684252824164
8.252017974853516,-3.977325439453125,-4.028372287750244,2023-05-16T16:00:24.171016Z,1684252824170
6.951674461364746,-3.868699312210083,-5.933732032775879,2023-05-16T16:00:24.189753Z,1684252824189
5.896177768707275,-2.7232046127319336,-7.0734734535217285,2023-05-16T16:00:24.209760Z,1684252824209
5.780675888061523,-1.86898934841156,-6.690016746520996,2023-05-16T16:00:24.230789Z,1684252824230
5.514026165008545,-1.7415765523910522,-6.731977462768555,2023-05-16T16:00:24.268432Z,1684252824268
5.70232629776001,-1.5474061965942383,-8.360735893249512,2023-05-16T16:00:24.273971Z,1684252824273
6.7589430809021,-1.0362635850906372,-9.455567359924316,2023-05-16T16:00:24.295060Z,1684252824294
7.664426803588867,-1.298464298248291,-9.156152725219727,2023-05-16T16:00:24.309679Z,1684252824309
9.181626319885254,-2.553941249847412,-9.46782398223877,2023-05-16T16:00:24.329956Z,1684252824329
7.999601364135742,-3.714465618133545,-11.584395408630371,2023-05-16T16:00:24.360054Z,1684252824359
7.297463417053223,-3.179253578186035,-15.96636962890625,2023-05-16T16:00:24.372923Z,1684252824372
7.810024261474609,-2.0096957683563232,-20.536041259765625,2023-05-16T16:00:24.391263Z,1684252824391
10.486978530883789,-2.358987331390381,-25.177095413208008,2023-05-16T16:00:24.411971Z,1684252824411
13.022237777709961,-4.132728576660156,-28.312681198120117,2023-05-16T16:00:24.432272Z,1684252824432
16.090316772460938,-6.559586524963379,-32.066524505615234,2023-05-16T16:00:24.465178Z,1684252824464
17.783512115478516,-12.526191711425781,-36.44868087768555,2023-05-16T16:00:24.470527Z,1684252824470
23.68332290649414,-24.305105209350586,-38.28754806518555,2023-05-16T16:00:24.492027Z,1684252824491
29.014108657836914,-36.735233306884766,-34.8272819519043,2023-05-16T16:00:24.511796Z,1684252824511
29.585464477539062,-49.687217712402344,-31.873117446899414,2023-05-16T16:00:24.532074Z,1684252824532
28.394821166992188,-60.12156677246094,-29.649625778198242,2023-05-16T16:00:24.568371Z,1684252824568
26.451303482055664,-65.9607162475586,-27.408512115478516,2023-05-16T16:00:24.570898Z,1684252824570
26.346635818481445,-65.21920013427734,-22.898035049438477,2023-05-16T16:00:24.593300Z,1684252824593
32.32722473144531,-67.43346405029297,-23.84532356262207,2023-05-16T16:00:24.611844Z,1684252824611
37.289058685302734,-71.85401153564453,-29.72215461730957,2023-05-16T16:00:24.633219Z,1684252824633
38.24951171875,-73.7922134399414,-28.724994659423828,2023-05-16T16:00:24.667224Z,1684252824666
32.664390563964844,-68.40945434570312,-24.864452362060547,2023-05-16T16:00:24.671614Z,1684252824671
20.819435119628906,-56.21173095703125,-21.843299865722656,2023-05-16T16:00:24.696133Z,1684252824696
11.040148735046387,-47.284549713134766,-18.47100830078125,2023-05-16T16:00:24.713366Z,1684252824713
3.3661766052246094,-39.712345123291016,-15.803095817565918,2023-05-16T16:00:24.730488Z,1684252824730
1.399796962738037,-29.54071807861328,-11.477603912353516,2023-05-16T16:00:24.768759Z,1684252824768
2.1352317333221436,-25.41303825378418,-9.203163146972656,2023-05-16T16:00:24.770405Z,1684252824770
2.082611322402954,-24.00027084350586,-7.580428123474121,2023-05-16T16:00:24.792290Z,1684252824792
1.2256516218185425,-21.946025848388672,-6.167227745056152,2023-05-16T16:00:24.811864Z,1684252824811
-2.5619235038757324,-19.191566467285156,-6.40419864654541,2023-05-16T16:00:24.836644Z,1684252824836
-4.7422075271606445,-15.432504653930664,-6.76705265045166,2023-05-16T16:00:24.862979Z,1684252824862
-5.273374080657959,-11.673377990722656,-5.357416152954102,2023-05-16T16:00:24.871307Z,1684252824871
-4.394721508026123,-8.975735664367676,-3.8078885078430176,2023-05-16T16:00:24.893399Z,1684252824893
-4.06357479095459,-7.609951019287109,-2.78094482421875,2023-05-16T16:00:24.912881Z,1684252824912
-4.766646385192871,-7.669656276702881,-2.8786211013793945,2023-05-16T16:00:24.931275Z,1684252824931
-4.226797580718994,-8.109601974487305,-3.202047348022461,2023-05-16T16:00:24.961283Z,1684252824961
-3.724027156829834,-7.6363325119018555,-3.3489251136779785,2023-05-16T16:00:24.971947Z,1684252824971
-2.7558469772338867,-6.419256687164307,-2.659928798675537,2023-05-16T16:00:24.992806Z,1684252824992
-3.040400981903076,-5.595522880554199,-1.8736224174499512,2023-05-16T16:00:25.012649Z,1684252825012
-1.75477933883667,-6.008338928222656,-1.271009922027588,2023-05-16T16:00:25.033649Z,1684252825033
-0.05210304260253906,-7.208694934844971,-0.5222091674804688,2023-05-16T16:00:25.065652Z,1684252825065
1.0732154846191406,-7.759481430053711,-0.9051852226257324,2023-05-16T16:00:25.073125Z,1684252825073
1.473568081855774,-8.199749946594238,-0.8725247383117676,2023-05-16T16:00:25.091007Z,1684252825090
2.1693849563598633,-9.018301010131836,-1.057605266571045,2023-05-16T16:00:25.112092Z,1684252825112
1.6930313110351562,-9.446015357971191,-1.144670009613037,2023-05-16T16:00:25.132205Z,1684252825132
1.8531494140625,-8.329644203186035,-0.25579261779785156,2023-05-16T16:00:25.152516Z,1684252825152
1.5724679231643677,-7.222813606262207,2.816335678100586,2023-05-16T16:00:25.174083Z,1684252825174
1.5778117179870605,-6.916068077087402,4.136969566345215,2023-05-16T16:00:25.191925Z,1684252825191
1.4869492053985596,-6.85986852645874,4.432799339294434,2023-05-16T16:00:25.211421Z,1684252825211
1.7970924377441406,-6.361175537109375,8.457465171813965,2023-05-16T16:00:25.231211Z,1684252825231
3.9576950073242188,-6.806471824645996,11.234269142150879,2023-05-16T16:00:25.253362Z,1684252825253
6.0183563232421875,-7.631087779998779,12.06794548034668,2023-05-16T16:00:25.272408Z,1684252825272
8.361469268798828,-7.146356582641602,14.7523832321167,2023-05-16T16:00:25.292111Z,1684252825292
11.008286476135254,-6.498998165130615,14.767141342163086,2023-05-16T16:00:25.313111Z,1684252825313
11.189461708068848,-7.405067443847656,11.013955116271973,2023-05-16T16:00:25.332408Z,1684252825332
10.717398643493652,-7.744273662567139,7.53691291809082,2023-05-16T16:00:25.353103Z,1684252825353
9.047707557678223,-6.187875270843506,4.348569869995117,2023-05-16T16:00:25.372670Z,1684252825372
8.739056587219238,-4.599352836608887,2.524782180786133,2023-05-16T16:00:25.392162Z,1684252825392
10.482125282287598,-4.751437664031982,1.5559911727905273,2023-05-16T16:00:25.412451Z,1684252825412
10.570358276367188,-5.606077671051025,-1.4702672958374023,2023-05-16T16:00:25.431963Z,1684252825431
9.433306694030762,-5.452471733093262,-2.598099708557129,2023-05-16T16:00:25.453581Z,1684252825453
9.715255737304688,-4.032888412475586,-2.6442666053771973,2023-05-16T16:00:25.471414Z,1684252825471
9.408418655395508,-3.2515926361083984,-3.244147300720215,2023-05-16T16:00:25.491296Z,1684252825491
8.296463012695312,-3.469757556915283,-4.3636298179626465,2023-05-16T16:00:25.512430Z,1684252825512
8.06249713897705,-3.8994085788726807,-4.132475852966309,2023-05-16T16:00:25.531466Z,1684252825531
8.447516441345215,-4.4139556884765625,-3.418588161468506,2023-05-16T16:00:25.553496Z,1684252825553
8.136711120605469,-4.637613296508789,-4.1715264320373535,2023-05-16T16:00:25.571946Z,1684252825571
7.884571552276611,-3.944058656692505,-4.960736274719238,2023-05-16T16:00:25.592448Z,1684252825592
7.832237720489502,-3.188406467437744,-4.418636322021484,2023-05-16T16:00:25.612557Z,1684252825612
8.78132152557373,-2.9230618476867676,-3.6597299575805664,2023-05-16T16:00:25.632891Z,1684252825632
8.526336669921875,-3.2457103729248047,-4.302360534667969,2023-05-16T16:00:25.652047Z,1684252825651
8.131999969482422,-3.3458709716796875,-4.407434463500977,2023-05-16T16:00:25.673459Z,1684252825673
8.249227523803711,-2.0181479454040527,-3.866166591644287,2023-05-16T16:00:25.691846Z,1684252825691
8.021546363830566,-0.7099063396453857,-3.0931453704833984,2023-05-16T16:00:25.713577Z,1684252825713
7.243443489074707,-0.5243246555328369,-3.4001593589782715,2023-05-16T16:00:25.733229Z,1684252825733
6.644739151000977,-1.1317217350006104,-3.5393710136413574,2023-05-16T16:00:25.761968Z,1684252825761
6.683324813842773,-1.1750428676605225,-2.7096409797668457,2023-05-16T16:00:25.774204Z,1684252825774
6.948930263519287,-0.8916144371032715,-1.7677955627441406,2023-05-16T16:00:25.794969Z,1684252825794
6.478188514709473,-0.6792943477630615,-3.001190662384033,2023-05-16T16:00:25.811988Z,1684252825811
4.966948986053467,-0.9250302314758301,-3.937830924987793,2023-05-16T16:00:25.847374Z,1684252825847
4.185046195983887,-0.89327073097229,-3.420456886291504,2023-05-16T16:00:25.854168Z,1684252825854
5.3261494636535645,-1.010090708732605,-2.950411796569824,2023-05-16T16:00:25.875414Z,1684252825875
5.005372524261475,-1.5003308057785034,-3.707233428955078,2023-05-16T16:00:25.891866Z,1684252825891
4.369107246398926,-1.0174672603607178,-4.373908042907715,2023-05-16T16:00:25.914385Z,1684252825914
4.1100850105285645,-0.6973050832748413,-4.39839506149292,2023-05-16T16:00:25.934330Z,1684252825934
3.7252883911132812,-0.2805982828140259,-3.6029114723205566,2023-05-16T16:00:25.958234Z,1684252825958
3.262956142425537,1.0361968278884888,-3.668429136276245,2023-05-16T16:00:25.972029Z,1684252825971
3.5575709342956543,0.6588432192802429,-4.8938374519348145,2023-05-16T16:00:25.994288Z,1684252825994
4.123392105102539,-1.0309736728668213,-6.32680082321167,2023-05-16T16:00:26.014457Z,1684252826014
4.265778541564941,-1.5148735046386719,-7.202493190765381,2023-05-16T16:00:26.036182Z,1684252826036
5.719243049621582,-0.49359381198883057,-6.803836345672607,2023-05-16T16:00:26.061430Z,1684252826061
7.317023754119873,-0.615383505821228,-7.615378379821777,2023-05-16T16:00:26.074521Z,1684252826074
8.928770065307617,-2.0365633964538574,-10.772226333618164,2023-05-16T16:00:26.093305Z,1684252826093
10.060815811157227,-1.8316477537155151,-14.114538192749023,2023-05-16T16:00:26.111986Z,1684252826111
11.255082130432129,-1.1014816761016846,-17.895530700683594,2023-05-16T16:00:26.134705Z,1684252826134
13.880867958068848,-2.3119680881500244,-23.221481323242188,2023-05-16T16:00:26.161978Z,1684252826161
17.102737426757812,-5.49348258972168,-29.363800048828125,2023-05-16T16:00:26.174115Z,1684252826174
21.421730041503906,-10.856355667114258,-33.56145477294922,2023-05-16T16:00:26.194778Z,1684252826194
25.63854217529297,-18.932449340820312,-35.62378692626953,2023-05-16T16:00:26.212468Z,1684252826212
30.745838165283203,-30.21494483947754,-32.25994873046875,2023-05-16T16:00:26.232459Z,1684252826232
36.94707107543945,-43.344722747802734,-27.37909698486328,2023-05-16T16:00:26.260114Z,1684252826259
38.300682067871094,-53.309547424316406,-22.26358985900879,2023-05-16T16:00:26.275340Z,1684252826275
35.606117248535156,-62.38352966308594,-19.71262550354004,2023-05-16T16:00:26.292391Z,1684252826292
31.726085662841797,-68.79580688476562,-16.317691802978516,2023-05-16T16:00:26.312389Z,1684252826312
28.906265258789062,-69.72962188720703,-12.355722427368164,2023-05-16T16:00:26.334567Z,1684252826334
24.330904006958008,-71.95390319824219,-11.553991317749023,2023-05-16T16:00:26.365357Z,1684252826365
18.116294860839844,-70.05557250976562,-12.337182998657227,2023-05-16T16:00:26.373905Z,1684252826373
9.720073699951172,-57.7109375,-5.809059143066406,2023-05-16T16:00:26.394745Z,1684252826394
3.257474899291992,-48.49154281616211,-8.473496437072754,2023-05-16T16:00:26.412777Z,1684252826412
0.5484476089477539,-40.59770965576172,-8.858404159545898,2023-05-16T16:00:26.447530Z,1684252826447
-1.1386353969573975,-35.52699661254883,-7.668051242828369,2023-05-16T16:00:26.454176Z,1684252826454
-3.0486598014831543,-30.59854507446289,-6.1922607421875,2023-05-16T16:00:26.474221Z,1684252826474
-5.390073299407959,-26.095340728759766,-4.400120258331299,2023-05-16T16:00:26.494515Z,1684252826494
-7.407231330871582,-21.773683547973633,-4.022584915161133,2023-05-16T16:00:26.515694Z,1684252826515
-7.813248157501221,-17.506305694580078,-3.803544521331787,2023-05-16T16:00:26.547598Z,1684252826547
-8.928938865661621,-14.387044906616211,-1.9113035202026367,2023-05-16T16:00:26.554348Z,1684252826554
-7.5161662101745605,-11.514730453491211,0.0763249397277832,2023-05-16T16:00:26.577024Z,1684252826576
-5.824431419372559,-9.591819763183594,1.7416610717773438,2023-05-16T16:00:26.592804Z,1684252826592
-5.2511091232299805,-8.886816024780273,2.7003021240234375,2023-05-16T16:00:26.612692Z,1684252826612
-4.872907638549805,-8.22089672088623,1.5666446685791016,2023-05-16T16:00:26.651662Z,1684252826651
-4.3433685302734375,-7.655004501342773,-0.0394744873046875,2023-05-16T16:00:26.654710Z,1684252826654
-3.1245334148406982,-6.129845142364502,0.4376106262207031,2023-05-16T16:00:26.681502Z,1684252826681
-2.662391424179077,-4.970921993255615,1.8458242416381836,2023-05-16T16:00:26.695002Z,1684252826694
-1.9661498069763184,-3.733976125717163,2.8204526901245117,2023-05-16T16:00:26.715286Z,1684252826715
-0.9677208662033081,-2.900158405303955,1.8909292221069336,2023-05-16T16:00:26.742954Z,1684252826742
-1.4560545682907104,-3.6803011894226074,1.6392078399658203,2023-05-16T16:00:26.754435Z,1684252826754
-1.4221177101135254,-3.614560604095459,1.6362953186035156,2023-05-16T16:00:26.774056Z,1684252826773
-0.5433214902877808,-3.181884288787842,1.9909963607788086,2023-05-16T16:00:26.793126Z,1684252826793
-0.45945727825164795,-3.3421308994293213,1.3651180267333984,2023-05-16T16:00:26.814850Z,1684252826814
-0.1614367961883545,-3.963715076446533,-0.5673179626464844,2023-05-16T16:00:26.843288Z,1684252826843
1.5258183479309082,-5.07000207901001,-0.9878926277160645,2023-05-16T16:00:26.857854Z,1684252826857
1.2926957607269287,-5.807523250579834,0.04637908935546875,2023-05-16T16:00:26.873454Z,1684252826873
1.2180858850479126,-5.508514404296875,0.8244991302490234,2023-05-16T16:00:26.893571Z,1684252826893
2.0127573013305664,-5.2400946617126465,0.8294696807861328,2023-05-16T16:00:26.913423Z,1684252826913
1.8327162265777588,-5.045062065124512,0.45694828033447266,2023-05-16T16:00:26.944634Z,1684252826944
1.3978400230407715,-4.459178447723389,-0.32878780364990234,2023-05-16T16:00:26.960393Z,1684252826960
0.11233258247375488,-3.636143922805786,-1.9077391624450684,2023-05-16T16:00:26.975653Z,1684252826975
-0.21786510944366455,-2.551954507827759,-1.0826706886291504,2023-05-16T16:00:26.994850Z,1684252826994
1.2368249893188477,-1.8236801624298096,1.1306190490722656,2023-05-16T16:00:27.013891Z,1684252827013
2.2758138179779053,-1.931666374206543,2.6073408126831055,2023-05-16T16:00:27.047692Z,1684252827047
2.209871530532837,-2.230703592300415,3.306558609008789,2023-05-16T16:00:27.056334Z,1684252827056
2.3893277645111084,-1.5557944774627686,2.3204736709594727,2023-05-16T16:00:27.077418Z,1684252827077
4.243770599365234,-0.2808387279510498,3.835068702697754,2023-05-16T16:00:27.093876Z,1684252827093
5.352700233459473,0.4099435806274414,4.356700897216797,2023-05-16T16:00:27.118663Z,1684252827118
4.8078484535217285,-0.3813812732696533,3.906163215637207,2023-05-16T16:00:27.148435Z,1684252827148
4.833782196044922,-0.48354458808898926,3.474142074584961,2023-05-16T16:00:27.153629Z,1684252827153
5.239667892456055,1.0335001945495605,3.358853340148926,2023-05-16T16:00:27.180676Z,1684252827180
5.59216833114624,1.440671443939209,2.666226387023926,2023-05-16T16:00:27.195379Z,1684252827195
5.069806098937988,-0.15528011322021484,1.810807228088379,2023-05-16T16:00:27.215773Z,1684252827215
3.9990463256835938,-1.220963478088379,1.4603252410888672,2023-05-16T16:00:27.244191Z,1684252827244
3.4544882774353027,-0.9982941150665283,1.2046623229980469,2023-05-16T16:00:27.259290Z,1684252827259
3.429917573928833,-0.1905651092529297,0.9952526092529297,2023-05-16T16:00:27.275595Z,1684252827275
4.630530834197998,0.31242895126342773,1.2539081573486328,2023-05-16T16:00:27.295420Z,1684252827295
5.047316551208496,-0.3351449966430664,2.4545717239379883,2023-05-16T16:00:27.316764Z,1684252827316
5.4239630699157715,-1.9100556373596191,1.3671379089355469,2023-05-16T16:00:27.345689Z,1684252827345
5.49329948425293,-3.0660338401794434,-0.17671871185302734,2023-05-16T16:00:27.353797Z,1684252827353
5.973033428192139,-3.519941806793213,-0.9987211227416992,2023-05-16T16:00:27.378270Z,1684252827378
6.864459991455078,-3.7557413578033447,-1.1244702339172363,2023-05-16T16:00:27.395333Z,1684252827395
5.8604350090026855,-3.841815710067749,-0.9746217727661133,2023-05-16T16:00:27.415658Z,1684252827415
4.765322685241699,-3.103834629058838,-1.6910858154296875,2023-05-16T16:00:27.451320Z,1684252827451
5.586214065551758,-2.070519208908081,-2.0597357749938965,2023-05-16T16:00:27.456705Z,1684252827456
7.146368026733398,-1.6612755060195923,-1.4666118621826172,2023-05-16T16:00:27.476765Z,1684252827476
7.415548324584961,-1.6103609800338745,-1.2339348793029785,2023-05-16T16:00:27.494587Z,1684252827494
6.130880355834961,-1.0996298789978027,-1.2520136833190918,2023-05-16T16:00:27.514026Z,1684252827513
4.58908748626709,-0.3779165744781494,-2.1633448600769043,2023-05-16T16:00:27.545739Z,1684252827545
5.22359561920166,-0.14770007133483887,-2.1073107719421387,2023-05-16T16:00:27.556164Z,1684252827556
6.853771686553955,-0.5538835525512695,-2.3714895248413086,2023-05-16T16:00:27.576742Z,1684252827576
5.795827865600586,-1.1862516403198242,-2.353194236755371,2023-05-16T16:00:27.594095Z,1684252827593
4.602170467376709,-0.8039474487304688,-2.9297642707824707,2023-05-16T16:00:27.614169Z,1684252827614
4.093961715698242,-0.15042519569396973,-2.606870651245117,2023-05-16T16:00:27.643081Z,1684252827642
4.29207706451416,-0.30152106285095215,-1.6682090759277344,2023-05-16T16:00:27.657486Z,1684252827657
4.267030239105225,-0.8444608449935913,-1.554356575012207,2023-05-16T16:00:27.676291Z,1684252827676
3.548870086669922,-1.2735953330993652,-3.0432591438293457,2023-05-16T16:00:27.696134Z,1684252827696
2.3089656829833984,-1.2792184352874756,-3.9946131706237793,2023-05-16T16:00:27.714830Z,1684252827714
2.482893466949463,-1.0605511665344238,-3.513461112976074,2023-05-16T16:00:27.747061Z,1684252827746
4.260133266448975,-1.0168377161026,-3.440633773803711,2023-05-16T16:00:27.756402Z,1684252827756
5.0385422706604,-1.355452537536621,-3.680785655975342,2023-05-16T16:00:27.776894Z,1684252827776
4.499837398529053,-1.2387645244598389,-4.300299644470215,2023-05-16T16:00:27.795981Z,1684252827795
3.281165599822998,-0.2652832269668579,-4.895890712738037,2023-05-16T16:00:27.814541Z,1684252827814
3.7784433364868164,0.4115934371948242,-4.821954250335693,2023-05-16T16:00:27.850075Z,1684252827849
5.2070465087890625,0.13046568632125854,-4.73838472366333,2023-05-16T16:00:27.856020Z,1684252827855
4.643701076507568,-0.5686730146408081,-6.377568244934082,2023-05-16T16:00:27.876330Z,1684252827876
3.342855930328369,-0.32089775800704956,-7.814035415649414,2023-05-16T16:00:27.896104Z,1684252827896
3.4772448539733887,-0.29125937819480896,-7.898769378662109,2023-05-16T16:00:27.916626Z,1684252827916
5.196346759796143,-0.2321445792913437,-8.771551132202148,2023-05-16T16:00:27.948110Z,1684252827948
5.967663764953613,-1.0294770002365112,-10.649235725402832,2023-05-16T16:00:27.958567Z,1684252827958
7.335740089416504,-1.7935303449630737,-13.528629302978516,2023-05-16T16:00:27.977125Z,1684252827976
8.966717720031738,-1.6370259523391724,-16.8989315032959,2023-05-16T16:00:27.994815Z,1684252827994
10.244476318359375,-1.6423341035842896,-20.70149040222168,2023-05-16T16:00:28.016245Z,1684252828016
12.69564437866211,-3.5015575885772705,-26.67237663269043,2023-05-16T16:00:28.049322Z,1684252828049
16.8906307220459,-8.3031644821167,-31.980451583862305,2023-05-16T16:00:28.057186Z,1684252828057
23.08329963684082,-15.537490844726562,-33.702823638916016,2023-05-16T16:00:28.076453Z,1684252828076
26.81877326965332,-25.040788650512695,-32.20711135864258,2023-05-16T16:00:28.096124Z,1684252828096
30.073238372802734,-35.04116439819336,-26.9100284576416,2023-05-16T16:00:28.114990Z,1684252828114
32.69389343261719,-45.159385681152344,-23.85594367980957,2023-05-16T16:00:28.150666Z,1684252828150
31.87438201904297,-52.78593444824219,-20.847248077392578,2023-05-16T16:00:28.157188Z,1684252828157
30.012531280517578,-56.79219436645508,-17.526222229003906,2023-05-16T16:00:28.177566Z,1684252828177
31.652454376220703,-62.35127639770508,-13.21784496307373,2023-05-16T16:00:28.195428Z,1684252828195
32.0681266784668,-71.11389923095703,-14.90267562866211,2023-05-16T16:00:28.217211Z,1684252828217
24.884632110595703,-65.27349853515625,-9.209226608276367,2023-05-16T16:00:28.247382Z,1684252828247
20.22747802734375,-58.12797927856445,-7.071036338806152,2023-05-16T16:00:28.256182Z,1684252828256
14.26515007019043,-52.82793426513672,-7.680093288421631,2023-05-16T16:00:28.278396Z,1684252828278
10.775972366333008,-45.58559036254883,-8.020792007446289,2023-05-16T16:00:28.297116Z,1684252828297
10.206277847290039,-47.589298248291016,-10.421463012695312,2023-05-16T16:00:28.315942Z,1684252828315
1.6312847137451172,-41.79206466674805,-6.657829761505127,2023-05-16T16:00:28.344592Z,1684252828344
-3.738682746887207,-30.852754592895508,-3.7741692066192627,2023-05-16T16:00:28.355304Z,1684252828355
-5.870631217956543,-24.992671966552734,-5.648621559143066,2023-05-16T16:00:28.376792Z,1684252828376
-7.558553218841553,-20.894697189331055,-6.502366065979004,2023-05-16T16:00:28.395345Z,1684252828395
-8.059479713439941,-17.39552879333496,-4.21213436126709,2023-05-16T16:00:28.417207Z,1684252828417
-5.303676605224609,-13.488983154296875,-2.011021137237549,2023-05-16T16:00:28.441915Z,1684252828441
-3.4135172367095947,-10.643047332763672,-0.8669815063476562,2023-05-16T16:00:28.457506Z,1684252828457
-3.650423765182495,-9.357239723205566,-0.6749186515808105,2023-05-16T16:00:28.477517Z,1684252828477
-3.1874067783355713,-8.871002197265625,0.029910564422607422,2023-05-16T16:00:28.496820Z,1684252828496
-3.1576831340789795,-8.22510814666748,2.0498833656311035,2023-05-16T16:00:28.516738Z,1684252828516
-2.8348917961120605,-7.090131759643555,2.0378222465515137,2023-05-16T16:00:28.550798Z,1684252828550
-3.1307435035705566,-6.627988338470459,0.7039093971252441,2023-05-16T16:00:28.558115Z,1684252828558
-3.7561702728271484,-6.171382904052734,0.2912578582763672,2023-05-16T16:00:28.577985Z,1684252828577
-3.773745536804199,-5.508012771606445,0.9168643951416016,2023-05-16T16:00:28.596807Z,1684252828596
-3.5657317638397217,-5.080277442932129,1.4660959243774414,2023-05-16T16:00:28.617662Z,1684252828617
-3.185194492340088,-5.34172248840332,1.224562644958496,2023-05-16T16:00:28.650251Z,1684252828650
-2.759350061416626,-5.995896339416504,0.6975231170654297,2023-05-16T16:00:28.655824Z,1684252828655
-2.8942320346832275,-6.193228721618652,0.35865306854248047,2023-05-16T16:00:28.680651Z,1684252828680
-3.153003692626953,-6.120059013366699,0.9243097305297852,2023-05-16T16:00:28.697659Z,1684252828697
-0.8738789558410645,-5.926719665527344,2.013298988342285,2023-05-16T16:00:28.717847Z,1684252828717
-0.32314419746398926,-6.524590492248535,1.221543312072754,2023-05-16T16:00:28.744656Z,1684252828744
0.09534001350402832,-7.737322807312012,1.6711549758911133,2023-05-16T16:00:28.757587Z,1684252828757
-0.5019116401672363,-8.600403785705566,1.7333297729492188,2023-05-16T16:00:28.777552Z,1684252828777
-0.3003196716308594,-8.303007125854492,3.3228559494018555,2023-05-16T16:00:28.795679Z,1684252828795
0.6058320999145508,-7.0712080001831055,4.825216293334961,2023-05-16T16:00:28.816315Z,1684252828816
1.5499813556671143,-6.484372615814209,4.816679954528809,2023-05-16T16:00:28.846010Z,1684252828845
2.413034677505493,-5.406937122344971,5.1685075759887695,2023-05-16T16:00:28.860591Z,1684252828860
4.315103530883789,-4.181088447570801,6.431423187255859,2023-05-16T16:00:28.877908Z,1684252828877
5.593371868133545,-3.8221993446350098,5.867774963378906,2023-05-16T16:00:28.897810Z,1684252828897
6.06500768661499,-3.2838544845581055,4.640650749206543,2023-05-16T16:00:28.918258Z,1684252828918
6.407412528991699,-2.1725265979766846,3.9051380157470703,2023-05-16T16:00:28.948239Z,1684252828948
8.118165969848633,-1.388589859008789,3.9427871704101562,2023-05-16T16:00:28.957139Z,1684252828957
10.23776912689209,-1.1277170181274414,3.294973373413086,2023-05-16T16:00:28.979155Z,1684252828979
9.933296203613281,-1.2742271423339844,1.8099241256713867,2023-05-16T16:00:28.997969Z,1684252828997
7.7173871994018555,-1.2448134422302246,-0.0942220687866211,2023-05-16T16:00:29.016645Z,1684252829016
6.987506866455078,-1.2487921714782715,-0.5728540420532227,2023-05-16T16:00:29.046901Z,1684252829046
7.454734802246094,-1.7133872509002686,-0.37572479248046875,2023-05-16T16:00:29.056097Z,1684252829056
7.683472633361816,-1.6607048511505127,-0.7897229194641113,2023-05-16T16:00:29.081688Z,1684252829081
6.890305995941162,-1.1357555389404297,-0.9663481712341309,2023-05-16T16:00:29.098676Z,1684252829098
6.500422477722168,-0.8721024990081787,-1.3444147109985352,2023-05-16T16:00:29.116334Z,1684252829116
5.945102691650391,-0.8561570644378662,-2.1257753372192383,2023-05-16T16:00:29.145033Z,1684252829144
6.601219177246094,-1.0451464653015137,-1.70969820022583,2023-05-16T16:00:29.157882Z,1684252829157
7.671308517456055,-1.8597297668457031,-1.316671371459961,2023-05-16T16:00:29.178465Z,1684252829178
6.691784381866455,-2.3116278648376465,-1.2129907608032227,2023-05-16T16:00:29.199370Z,1684252829199
5.714582443237305,-1.9342186450958252,-1.423476219177246,2023-05-16T16:00:29.226556Z,1684252829226
5.545014381408691,-1.4345834255218506,-1.8208489418029785,2023-05-16T16:00:29.241757Z,1684252829241
6.234002113342285,-1.1675643920898438,-1.5249838829040527,2023-05-16T16:00:29.257852Z,1684252829257
6.067783355712891,-1.4315285682678223,-1.7461018562316895,2023-05-16T16:00:29.279368Z,1684252829279
4.587742805480957,-2.035250425338745,-1.7518506050109863,2023-05-16T16:00:29.298305Z,1684252829298
4.498238563537598,-2.139937162399292,-2.1300487518310547,2023-05-16T16:00:29.320595Z,1684252829320
5.194657325744629,-1.590705394744873,-1.2463884353637695,2023-05-16T16:00:29.348670Z,1684252829348
7.110954761505127,-1.4591739177703857,-0.744530200958252,2023-05-16T16:00:29.358412Z,1684252829358
6.703818321228027,-2.1316189765930176,-1.1805047988891602,2023-05-16T16:00:29.379158Z,1684252829379
5.318422317504883,-2.3654956817626953,-1.8355121612548828,2023-05-16T16:00:29.398969Z,1684252829398
4.586811065673828,-1.9190305471420288,-1.968480110168457,2023-05-16T16:00:29.416709Z,1684252829416
4.878148555755615,-1.7089617252349854,-2.14345645904541,2023-05-16T16:00:29.450757Z,1684252829450
5.7176690101623535,-2.0506649017333984,-3.1603899002075195,2023-05-16T16:00:29.456706Z,1684252829456
4.1030168533325195,-2.391970157623291,-3.8927040100097656,2023-05-16T16:00:29.480057Z,1684252829479
3.816279888153076,-1.7261567115783691,-3.997953176498413,2023-05-16T16:00:29.498949Z,1684252829498
4.853676795959473,-0.8032981157302856,-3.689173698425293,2023-05-16T16:00:29.518495Z,1684252829518
4.755300045013428,-1.1930766105651855,-4.222179412841797,2023-05-16T16:00:29.546737Z,1684252829546
3.2311320304870605,-2.1027421951293945,-4.711096286773682,2023-05-16T16:00:29.566014Z,1684252829565
3.9729466438293457,-1.3504748344421387,-4.997047424316406,2023-05-16T16:00:29.577718Z,1684252829577
5.0903215408325195,-0.04250476509332657,-5.829419136047363,2023-05-16T16:00:29.597519Z,1684252829597
5.315636157989502,-0.004703015089035034,-6.768864631652832,2023-05-16T16:00:29.618129Z,1684252829618
5.112144947052002,-1.2309110164642334,-6.84912109375,2023-05-16T16:00:29.639098Z,1684252829639
5.270144462585449,-1.9754725694656372,-6.463644981384277,2023-05-16T16:00:29.658424Z,1684252829658
5.032138824462891,-1.5369325876235962,-8.02198600769043,2023-05-16T16:00:29.678678Z,1684252829678
8.031310081481934,-1.2868726253509521,-11.278711318969727,2023-05-16T16:00:29.698360Z,1684252829698
8.811400413513184,-1.8005414009094238,-15.81401538848877,2023-05-16T16:00:29.717304Z,1684252829717
8.922540664672852,-1.5911281108856201,-20.344152450561523,2023-05-16T16:00:29.737793Z,1684252829737
10.718265533447266,-2.0859813690185547,-24.039207458496094,2023-05-16T16:00:29.758932Z,1684252829758
15.805837631225586,-4.329282760620117,-28.034624099731445,2023-05-16T16:00:29.779369Z,1684252829779
21.456083297729492,-9.136726379394531,-32.44672775268555,2023-05-16T16:00:29.798503Z,1684252829798
28.833053588867188,-17.014698028564453,-33.764076232910156,2023-05-16T16:00:29.818322Z,1684252829818
33.67287063598633,-28.206205368041992,-33.727081298828125,2023-05-16T16:00:29.839341Z,1684252829839
35.589717864990234,-40.0989990234375,-31.364242553710938,2023-05-16T16:00:29.858487Z,1684252829858
37.10784149169922,-54.05341339111328,-29.041358947753906,2023-05-16T16:00:29.878589Z,1684252829878
39.12030029296875,-64.77085876464844,-22.871021270751953,2023-05-16T16:00:29.897452Z,1684252829897
40.38820266723633,-70.50569915771484,-18.59303092956543,2023-05-16T16:00:29.918410Z,1684252829918
41.10958480834961,-74.60671997070312,-18.588272094726562,2023-05-16T16:00:29.939206Z,1684252829939
42.975006103515625,-77.71166229248047,-17.83005142211914,2023-05-16T16:00:29.959191Z,1684252829959
37.70718765258789,-77.9389419555664,-16.391403198242188,2023-05-16T16:00:29.979101Z,1684252829979
28.258468627929688,-64.63302612304688,-12.512802124023438,2023-05-16T16:00:29.998657Z,1684252829998
19.574596405029297,-56.804325103759766,-15.660772323608398,2023-05-16T16:00:30.018597Z,1684252830018
14.116886138916016,-47.775535583496094,-13.223916053771973,2023-05-16T16:00:30.040046Z,1684252830040
10.544178009033203,-39.005306243896484,-9.828348159790039,2023-05-16T16:00:30.058756Z,1684252830058
8.935139656066895,-32.57489776611328,-7.465182304382324,2023-05-16T16:00:30.079042Z,1684252830079
6.549774646759033,-27.981239318847656,-6.966793537139893,2023-05-16T16:00:30.099458Z,1684252830099
3.7375478744506836,-24.057201385498047,-6.172091484069824,2023-05-16T16:00:30.117574Z,1684252830117
1.7675251960754395,-21.74435043334961,-4.655356407165527,2023-05-16T16:00:30.156520Z,1684252830156
-0.3179337978363037,-20.641586303710938,-4.851475715637207,2023-05-16T16:00:30.159627Z,1684252830159
-1.715113639831543,-18.469188690185547,-5.513742446899414,2023-05-16T16:00:30.179785Z,1684252830179
-3.0062448978424072,-16.130252838134766,-5.053625106811523,2023-05-16T16:00:30.200107Z,1684252830200
-3.546980857849121,-13.645971298217773,-4.038494110107422,2023-05-16T16:00:30.217866Z,1684252830217
-3.0258235931396484,-10.975192070007324,-3.0910439491271973,2023-05-16T16:00:30.238978Z,1684252830238
-2.6822781562805176,-9.013296127319336,-2.4050073623657227,2023-05-16T16:00:30.257848Z,1684252830257
-2.7436375617980957,-7.711049556732178,-2.0149736404418945,2023-05-16T16:00:30.279156Z,1684252830279
-2.5681777000427246,-7.226553440093994,-1.5932092666625977,2023-05-16T16:00:30.298941Z,1684252830298
-2.318727970123291,-6.4732666015625,-0.9442954063415527,2023-05-16T16:00:30.319260Z,1684252830319
-2.426391124725342,-4.917074680328369,-0.7133088111877441,2023-05-16T16:00:30.338042Z,1684252830337
-2.8432350158691406,-4.118477821350098,-0.9269824028015137,2023-05-16T16:00:30.358885Z,1684252830358
-3.233107566833496,-4.182303428649902,-1.368380069732666,2023-05-16T16:00:30.378978Z,1684252830378
-2.637174129486084,-5.46135139465332,-1.486752986907959,2023-05-16T16:00:30.398933Z,1684252830398
-2.36179780960083,-6.535366535186768,-1.501194953918457,2023-05-16T16:00:30.419134Z,1684252830419
-1.5729808807373047,-6.396666526794434,-1.4661011695861816,2023-05-16T16:00:30.439902Z,1684252830439
-1.345750331878662,-6.49095344543457,-0.740293025970459,2023-05-16T16:00:30.458075Z,1684252830458
-0.7149298191070557,-6.688681602478027,-0.2949352264404297,2023-05-16T16:00:30.479142Z,1684252830479
0.44507455825805664,-7.11767578125,-0.44225025177001953,2023-05-16T16:00:30.499117Z,1684252830499
0.03392314910888672,-7.508421897888184,0.19696903228759766,2023-05-16T16:00:30.518019Z,1684252830517
-0.8607068061828613,-6.984985828399658,1.5807304382324219,2023-05-16T16:00:30.538236Z,1684252830538
-0.542758584022522,-5.986147880554199,3.393582344055176,2023-05-16T16:00:30.558746Z,1684252830558
-0.17918145656585693,-5.8651251792907715,4.33559513092041,2023-05-16T16:00:30.580578Z,1684252830580
0.6561794281005859,-7.091854095458984,6.163787841796875,2023-05-16T16:00:30.599974Z,1684252830599
1.2549359798431396,-9.051112174987793,9.202942848205566,2023-05-16T16:00:30.622611Z,1684252830622
2.7792162895202637,-10.79560661315918,10.564828872680664,2023-05-16T16:00:30.639457Z,1684252830639
6.310160160064697,-11.236465454101562,10.449237823486328,2023-05-16T16:00:30.659216Z,1684252830659
9.405576705932617,-9.730112075805664,10.939177513122559,2023-05-16T16:00:30.680024Z,1684252830679
12.472898483276367,-8.59107780456543,12.202366828918457,2023-05-16T16:00:30.700599Z,1684252830700
15.902695655822754,-8.268295288085938,10.309701919555664,2023-05-16T16:00:30.738817Z,1684252830738
16.319080352783203,-7.524592399597168,6.7569379806518555,2023-05-16T16:00:30.741395Z,1684252830741
17.06871795654297,-6.634364128112793,4.202527046203613,2023-05-16T16:00:30.758596Z,1684252830758
17.479082107543945,-5.973442554473877,2.8488683700561523,2023-05-16T16:00:30.780463Z,1684252830780
16.325439453125,-5.433988571166992,-0.7471942901611328,2023-05-16T16:00:30.800247Z,1684252830800
13.743497848510742,-4.725892066955566,-3.6356077194213867,2023-05-16T16:00:30.829177Z,1684252830829
12.227679252624512,-4.21096658706665,-5.374234676361084,2023-05-16T16:00:30.845128Z,1684252830845
10.624893188476562,-4.2533135414123535,-6.805047035217285,2023-05-16T16:00:30.859715Z,1684252830859
9.492213249206543,-4.204585075378418,-7.009772300720215,2023-05-16T16:00:30.879957Z,1684252830879
8.811590194702148,-3.3291471004486084,-6.287577152252197,2023-05-16T16:00:30.900694Z,1684252830900
8.377808570861816,-2.2875332832336426,-4.700716018676758,2023-05-16T16:00:30.935075Z,1684252830934
8.215993881225586,-1.7434191703796387,-3.686832904815674,2023-05-16T16:00:30.940926Z,1684252830940
8.513887405395508,-2.3215692043304443,-4.811182498931885,2023-05-16T16:00:30.961085Z,1684252830961
7.558525085449219,-3.575704574584961,-5.09841251373291,2023-05-16T16:00:30.980966Z,1684252830980
6.565588474273682,-3.685234308242798,-4.7835373878479,2023-05-16T16:00:31.000357Z,1684252831000
6.394435882568359,-3.236483097076416,-4.927446365356445,2023-05-16T16:00:31.030768Z,1684252831030
5.933379173278809,-3.5245399475097656,-4.768956184387207,2023-05-16T16:00:31.039953Z,1684252831039
6.783669471740723,-4.575814247131348,-4.696382522583008,2023-05-16T16:00:31.063456Z,1684252831063
6.135049819946289,-4.663949012756348,-4.46317195892334,2023-05-16T16:00:31.081426Z,1684252831081
5.188327312469482,-3.497851610183716,-3.832157611846924,2023-05-16T16:00:31.100662Z,1684252831100
5.255492210388184,-2.867048978805542,-3.0984630584716797,2023-05-16T16:00:31.134323Z,1684252831134
5.218446731567383,-3.4815526008605957,-3.331696033477783,2023-05-16T16:00:31.142812Z,1684252831142
6.063035011291504,-4.113949775695801,-3.323453664779663,2023-05-16T16:00:31.159722Z,1684252831159
7.138884544372559,-3.8866219520568848,-3.314129114151001,2023-05-16T16:00:31.181191Z,1684252831181
6.644333362579346,-3.375058650970459,-3.7292728424072266,2023-05-16T16:00:31.201315Z,1684252831201
5.971559524536133,-2.9599695205688477,-3.8620645999908447,2023-05-16T16:00:31.226405Z,1684252831226
6.314973831176758,-2.8117733001708984,-4.117785453796387,2023-05-16T16:00:31.240470Z,1684252831240
5.470711708068848,-3.2640249729156494,-4.05494499206543,2023-05-16T16:00:31.260531Z,1684252831260
3.9292850494384766,-3.5981242656707764,-3.7818756103515625,2023-05-16T16:00:31.280783Z,1684252831280
3.3044142723083496,-3.613572120666504,-4.717393398284912,2023-05-16T16:00:31.301080Z,1684252831301
2.9179606437683105,-3.090909242630005,-7.335354804992676,2023-05-16T16:00:31.332201Z,1684252831332
3.9525632858276367,-2.4214229583740234,-9.411054611206055,2023-05-16T16:00:31.340754Z,1684252831340
3.8417248725891113,-2.1367194652557373,-9.19443130493164,2023-05-16T16:00:31.363561Z,1684252831363
3.9584507942199707,-2.3696770668029785,-7.560461044311523,2023-05-16T16:00:31.379464Z,1684252831379
4.6296305656433105,-3.321432113647461,-8.871467590332031,2023-05-16T16:00:31.401207Z,1684252831401
4.1328558921813965,-3.7532732486724854,-12.747833251953125,2023-05-16T16:00:31.434049Z,1684252831433
4.623517990112305,-3.2563562393188477,-16.944198608398438,2023-05-16T16:00:31.440387Z,1684252831440
6.207550048828125,-2.2700490951538086,-18.729846954345703,2023-05-16T16:00:31.461011Z,1684252831460
7.053217887878418,-3.176679849624634,-20.988954544067383,2023-05-16T16:00:31.480671Z,1684252831480
8.767679214477539,-5.827316761016846,-23.125621795654297,2023-05-16T16:00:31.501472Z,1684252831501
11.7164306640625,-8.571756362915039,-28.3876953125,2023-05-16T16:00:31.529387Z,1684252831529
13.12386703491211,-14.013439178466797,-34.95199966430664,2023-05-16T16:00:31.542500Z,1684252831542
15.405776977539062,-20.77985954284668,-36.128211975097656,2023-05-16T16:00:31.562511Z,1684252831562
17.89189910888672,-29.423551559448242,-34.5965461730957,2023-05-16T16:00:31.581256Z,1684252831581
20.071529388427734,-39.74644088745117,-31.133228302001953,2023-05-16T16:00:31.600544Z,1684252831600
24.0301513671875,-53.89837646484375,-30.350378036499023,2023-05-16T16:00:31.631876Z,1684252831631
26.166847229003906,-64.34485626220703,-28.282310485839844,2023-05-16T16:00:31.647530Z,1684252831647
27.04035758972168,-64.5893325805664,-26.467580795288086,2023-05-16T16:00:31.660974Z,1684252831660
33.691646575927734,-67.85426330566406,-27.86984634399414,2023-05-16T16:00:31.681677Z,1684252831681
36.116363525390625,-86.38526916503906,-20.121463775634766,2023-05-16T16:00:31.701496Z,1684252831701
18.521240234375,-74.20394897460938,-13.456645011901855,2023-05-16T16:00:31.741968Z,1684252831741
7.778356552124023,-51.79726028442383,-14.658942222595215,2023-05-16T16:00:31.743438Z,1684252831743
6.326250076293945,-44.89828109741211,-17.700794219970703,2023-05-16T16:00:31.762940Z,1684252831762
5.5742669105529785,-37.707611083984375,-15.610467910766602,2023-05-16T16:00:31.781737Z,1684252831781
6.197656631469727,-33.79020309448242,-11.858104705810547,2023-05-16T16:00:31.802270Z,1684252831802
5.019713878631592,-29.475112915039062,-8.324156761169434,2023-05-16T16:00:31.834960Z,1684252831834
3.670504093170166,-23.757827758789062,-7.9993743896484375,2023-05-16T16:00:31.841734Z,1684252831841
2.2448995113372803,-20.666244506835938,-8.984969139099121,2023-05-16T16:00:31.862389Z,1684252831862
1.522184133529663,-18.42047882080078,-7.119588851928711,2023-05-16T16:00:31.881702Z,1684252831881
-0.13673396408557892,-16.68334197998047,-4.3215413093566895,2023-05-16T16:00:31.902152Z,1684252831902
-2.5347185134887695,-14.743386268615723,-4.025953769683838,2023-05-16T16:00:31.930479Z,1684252831930
-3.7798354625701904,-12.474445343017578,-3.6914548873901367,2023-05-16T16:00:31.944704Z,1684252831944
-3.36407470703125,-10.604901313781738,-3.618687629699707,2023-05-16T16:00:31.962520Z,1684252831962
-1.8398998975753784,-9.031482696533203,-2.4534335136413574,2023-05-16T16:00:31.980106Z,1684252831979
-0.23049581050872803,-8.159598350524902,-0.029825210571289062,2023-05-16T16:00:32.000190Z,1684252832000
-1.4140704870224,-8.508321762084961,0.9408245086669922,2023-05-16T16:00:32.035840Z,1684252832035
-1.7727538347244263,-8.150664329528809,1.9003124237060547,2023-05-16T16:00:32.042221Z,1684252832042
-2.2560086250305176,-7.291453838348389,1.6155872344970703,2023-05-16T16:00:32.062681Z,1684252832062
-2.105832099914551,-6.770333290100098,0.9771060943603516,2023-05-16T16:00:32.082838Z,1684252832082
-3.0493476390838623,-6.57127571105957,0.9520931243896484,2023-05-16T16:00:32.102129Z,1684252832102
-3.682812213897705,-5.966867923736572,1.1941156387329102,2023-05-16T16:00:32.135422Z,1684252832135
-4.050445079803467,-5.4700212478637695,1.3942070007324219,2023-05-16T16:00:32.140307Z,1684252832140
-3.87617826461792,-4.96512508392334,0.41039562225341797,2023-05-16T16:00:32.161091Z,1684252832161
-3.385939121246338,-5.151333332061768,-1.4139151573181152,2023-05-16T16:00:32.181894Z,1684252832181
-2.829768657684326,-5.512532711029053,-1.3158597946166992,2023-05-16T16:00:32.201437Z,1684252832201
-1.2724953889846802,-5.879554748535156,-1.6605372428894043,2023-05-16T16:00:32.231029Z,1684252832230
-0.5319947004318237,-6.585240840911865,-2.8851242065429688,2023-05-16T16:00:32.241786Z,1684252832241
0.19087094068527222,-6.731378555297852,-4.417370319366455,2023-05-16T16:00:32.263517Z,1684252832263
-0.39754438400268555,-6.628342151641846,-6.458942413330078,2023-05-16T16:00:32.282429Z,1684252832282
-0.532624363899231,-7.125285625457764,-6.821602821350098,2023-05-16T16:00:32.302366Z,1684252832302
2.1016478538513184,-7.995258331298828,-6.918105125427246,2023-05-16T16:00:32.331796Z,1684252832331
2.4587864875793457,-8.551193237304688,-8.656574249267578,2023-05-16T16:00:32.340698Z,1684252832340
2.5300564765930176,-8.00963020324707,-9.16455078125,2023-05-16T16:00:32.360359Z,1684252832360
2.4336860179901123,-7.041161060333252,-6.166116714477539,2023-05-16T16:00:32.383009Z,1684252832382
3.726146697998047,-7.0314483642578125,-3.5205142498016357,2023-05-16T16:00:32.400680Z,1684252832400
4.953649520874023,-7.326560974121094,-2.0835976600646973,2023-05-16T16:00:32.431036Z,1684252832430
8.281111717224121,-5.930767059326172,1.8761916160583496,2023-05-16T16:00:32.444121Z,1684252832444
12.242984771728516,-4.843456268310547,7.358603000640869,2023-05-16T16:00:32.468509Z,1684252832468
15.436257362365723,-5.230959892272949,9.189506530761719,2023-05-16T16:00:32.482908Z,1684252832482
17.36305046081543,-4.584654331207275,10.320837020874023,2023-05-16T16:00:32.502421Z,1684252832502
18.72856903076172,-2.5884287357330322,10.82880973815918,2023-05-16T16:00:32.533284Z,1684252832533
16.18111228942871,-3.6105282306671143,7.766744613647461,2023-05-16T16:00:32.543948Z,1684252832543
12.539589881896973,-5.493013381958008,4.668673515319824,2023-05-16T16:00:32.562758Z,1684252832562
11.045228004455566,-4.914027214050293,2.2361702919006348,2023-05-16T16:00:32.580744Z,1684252832580
11.166231155395508,-4.306123733520508,1.63604736328125,2023-05-16T16:00:32.602671Z,1684252832602
11.875438690185547,-4.62067174911499,0.7421755790710449,2023-05-16T16:00:32.634993Z,1684252832634
11.363572120666504,-5.276094436645508,-1.302891731262207,2023-05-16T16:00:32.641289Z,1684252832641
9.70128059387207,-5.778213977813721,-3.9018733501434326,2023-05-16T16:00:32.662672Z,1684252832662
8.504940032958984,-6.122802734375,-5.8393874168396,2023-05-16T16:00:32.684717Z,1684252832684
8.57049560546875,-6.151533603668213,-6.497404098510742,2023-05-16T16:00:32.704290Z,1684252832704
8.003023147583008,-5.830709457397461,-6.739625453948975,2023-05-16T16:00:32.724356Z,1684252832724
8.039668083190918,-5.13902473449707,-6.672702789306641,2023-05-16T16:00:32.746107Z,1684252832746
7.7507476806640625,-4.6257758140563965,-6.980750560760498,2023-05-16T16:00:32.761156Z,1684252832761
7.462831974029541,-4.84598970413208,-6.967257022857666,2023-05-16T16:00:32.782857Z,1684252832782
6.662463188171387,-5.243326663970947,-7.5960235595703125,2023-05-16T16:00:32.803339Z,1684252832803
5.444337368011475,-5.207704067230225,-8.099156379699707,2023-05-16T16:00:32.829818Z,1684252832829
4.5853166580200195,-4.836484432220459,-7.591912746429443,2023-05-16T16:00:32.845291Z,1684252832845
4.5493083000183105,-4.625909805297852,-7.606465816497803,2023-05-16T16:00:32.862831Z,1684252832862
4.190949440002441,-4.968597412109375,-6.983869552612305,2023-05-16T16:00:32.883078Z,1684252832883
4.327990531921387,-5.082123756408691,-6.311648845672607,2023-05-16T16:00:32.901201Z,1684252832901
4.317038536071777,-4.782581329345703,-5.494726181030273,2023-05-16T16:00:32.931236Z,1684252832931
4.074211120605469,-4.68017578125,-5.937225341796875,2023-05-16T16:00:32.941409Z,1684252832941
3.5855681896209717,-4.709480285644531,-6.939929485321045,2023-05-16T16:00:32.963502Z,1684252832963
3.251431703567505,-4.869484901428223,-7.3716559410095215,2023-05-16T16:00:32.983091Z,1684252832983
2.986555576324463,-4.906955718994141,-6.9751362800598145,2023-05-16T16:00:33.003213Z,1684252833003
3.1583428382873535,-4.683477401733398,-6.881829738616943,2023-05-16T16:00:33.033042Z,1684252833032
4.50723123550415,-4.379976272583008,-7.450840950012207,2023-05-16T16:00:33.043854Z,1684252833043
5.431472301483154,-4.484561920166016,-7.331019401550293,2023-05-16T16:00:33.061261Z,1684252833061
5.322246551513672,-3.617645025253296,-7.04605770111084,2023-05-16T16:00:33.081937Z,1684252833081
4.22608757019043,-2.0045526027679443,-8.337176322937012,2023-05-16T16:00:33.117970Z,1684252833117
3.587247371673584,-1.416818380355835,-10.344976425170898,2023-05-16T16:00:33.123977Z,1684252833123
2.0217132568359375,-2.1966047286987305,-11.07595443725586,2023-05-16T16:00:33.142988Z,1684252833142
3.0482611656188965,-3.712064266204834,-9.29994010925293,2023-05-16T16:00:33.163657Z,1684252833163
8.606220245361328,-4.205245018005371,-9.372775077819824,2023-05-16T16:00:33.183147Z,1684252833183
7.7363386154174805,-2.929168939590454,-12.262153625488281,2023-05-16T16:00:33.203415Z,1684252833203
6.259777069091797,-2.7266080379486084,-15.086236000061035,2023-05-16T16:00:33.231365Z,1684252833231
9.528780937194824,-4.255890846252441,-17.802989959716797,2023-05-16T16:00:33.245535Z,1684252833245
11.657435417175293,-4.615403652191162,-21.500568389892578,2023-05-16T16:00:33.262806Z,1684252833262
13.149747848510742,-2.4567527770996094,-26.512659072875977,2023-05-16T16:00:33.284492Z,1684252833284
15.215085983276367,-3.6169466972351074,-30.094038009643555,2023-05-16T16:00:33.308526Z,1684252833308
20.628557205200195,-9.259944915771484,-31.55893325805664,2023-05-16T16:00:33.327530Z,1684252833327
27.162155151367188,-17.86566925048828,-33.186729431152344,2023-05-16T16:00:33.343351Z,1684252833343
32.43939208984375,-27.6932373046875,-33.23121643066406,2023-05-16T16:00:33.361822Z,1684252833361
34.08565902709961,-37.62137222290039,-29.042993545532227,2023-05-16T16:00:33.384504Z,1684252833384
35.279972076416016,-48.11628341674805,-21.7386417388916,2023-05-16T16:00:33.415579Z,1684252833415
38.51756286621094,-56.61915969848633,-16.9153995513916,2023-05-16T16:00:33.421929Z,1684252833421
39.76066589355469,-62.503536224365234,-15.687433242797852,2023-05-16T16:00:33.446408Z,1684252833446
37.85346221923828,-63.842830657958984,-14.74035358428955,2023-05-16T16:00:33.463781Z,1684252833463
35.463035583496094,-66.66722869873047,-17.361492156982422,2023-05-16T16:00:33.483856Z,1684252833483
29.85342025756836,-70.50489044189453,-20.363937377929688,2023-05-16T16:00:33.502142Z,1684252833502
22.567882537841797,-60.293128967285156,-20.930866241455078,2023-05-16T16:00:33.531307Z,1684252833531
18.459415435791016,-51.444244384765625,-22.18938446044922,2023-05-16T16:00:33.543467Z,1684252833543
15.216917037963867,-47.9433708190918,-21.944807052612305,2023-05-16T16:00:33.563093Z,1684252833563
7.941876411437988,-39.687294006347656,-17.94913101196289,2023-05-16T16:00:33.583177Z,1684252833583
3.8062312602996826,-29.73280906677246,-13.261747360229492,2023-05-16T16:00:33.602712Z,1684252833602
4.046942234039307,-23.958255767822266,-12.329977989196777,2023-05-16T16:00:33.623072Z,1684252833623
2.866206169128418,-20.418813705444336,-11.289067268371582,2023-05-16T16:00:33.645040Z,1684252833645
2.3755695819854736,-17.94551658630371,-9.161273002624512,2023-05-16T16:00:33.663477Z,1684252833663
1.5497955083847046,-16.67586898803711,-7.446321964263916,2023-05-16T16:00:33.683732Z,1684252833683
0.8661138415336609,-15.388790130615234,-6.4384307861328125,2023-05-16T16:00:33.702407Z,1684252833702
0.0906369686126709,-13.255417823791504,-5.105419158935547,2023-05-16T16:00:33.723966Z,1684252833723
-0.8545489311218262,-11.167799949645996,-3.5235400199890137,2023-05-16T16:00:33.743497Z,1684252833743
-2.4988842010498047,-10.235424041748047,-2.8412742614746094,2023-05-16T16:00:33.765400Z,1684252833765
-3.7190585136413574,-10.278270721435547,-2.2936606407165527,2023-05-16T16:00:33.783726Z,1684252833783
-4.352726459503174,-9.847537994384766,-0.7988595962524414,2023-05-16T16:00:33.803832Z,1684252833803
-3.7380542755126953,-8.696305274963379,0.28061485290527344,2023-05-16T16:00:33.823705Z,1684252833823
-3.220409393310547,-7.606143474578857,0.34993934631347656,2023-05-16T16:00:33.843946Z,1684252833843
-3.503993511199951,-7.446559906005859,-0.3432149887084961,2023-05-16T16:00:33.863546Z,1684252833863
-3.620832920074463,-7.387908935546875,-1.2375493049621582,2023-05-16T16:00:33.883669Z,1684252833883
-3.4491961002349854,-6.816738128662109,-1.3079605102539062,2023-05-16T16:00:33.903798Z,1684252833903
-3.4224390983581543,-5.751768589019775,-1.3085193634033203,2023-05-16T16:00:33.924345Z,1684252833924
-2.637187957763672,-4.825305938720703,-1.5899314880371094,2023-05-16T16:00:33.943994Z,1684252833943
-0.9528827667236328,-4.233398914337158,-3.2628650665283203,2023-05-16T16:00:33.963844Z,1684252833963
-0.4997429847717285,-5.650434494018555,-3.5859789848327637,2023-05-16T16:00:33.983749Z,1684252833983
-0.6891994476318359,-7.230620861053467,-3.065457344055176,2023-05-16T16:00:34.004919Z,1684252834004
-0.4541940689086914,-4.977118968963623,-2.302506446838379,2023-05-16T16:00:34.024069Z,1684252834024
-0.19548606872558594,-3.542734146118164,-2.844231128692627,2023-05-16T16:00:34.045939Z,1684252834045
0.010610342025756836,-4.696351051330566,-3.14046049118042,2023-05-16T16:00:34.063848Z,1684252834063
0.978334903717041,-5.748909950256348,-1.257695198059082,2023-05-16T16:00:34.084047Z,1684252834084
1.1250611543655396,-6.111629486083984,-0.266357421875,2023-05-16T16:00:34.102912Z,1684252834102
1.9967708587646484,-6.502449035644531,0.3549766540527344,2023-05-16T16:00:34.123123Z,1684252834123
3.61234712600708,-6.435944557189941,0.8304805755615234,2023-05-16T16:00:34.144292Z,1684252834144
3.8644661903381348,-5.572780609130859,1.1806755065917969,2023-05-16T16:00:34.164374Z,1684252834164
3.5384345054626465,-5.726322650909424,1.8461380004882812,2023-05-16T16:00:34.184454Z,1684252834184
3.2452163696289062,-5.826727867126465,1.1821231842041016,2023-05-16T16:00:34.205893Z,1684252834205
1.4801664352416992,-6.1309051513671875,0.41492652893066406,2023-05-16T16:00:34.223179Z,1684252834223
0.9498990774154663,-6.395469665527344,-0.2446269989013672,2023-05-16T16:00:34.244257Z,1684252834244
0.7063922882080078,-7.890078067779541,-0.22232818603515625,2023-05-16T16:00:34.263042Z,1684252834262
1.9420411586761475,-9.659846305847168,0.26576995849609375,2023-05-16T16:00:34.284608Z,1684252834284
3.1052496433258057,-10.720467567443848,-0.5053129196166992,2023-05-16T16:00:34.307367Z,1684252834307
4.2333478927612305,-11.455192565917969,-0.6785593032836914,2023-05-16T16:00:34.327045Z,1684252834326
4.588134765625,-11.74316120147705,1.1144437789916992,2023-05-16T16:00:34.344538Z,1684252834344
4.438976764678955,-12.204245567321777,2.0152416229248047,2023-05-16T16:00:34.363058Z,1684252834362
5.381089210510254,-14.26776123046875,1.2777557373046875,2023-05-16T16:00:34.383407Z,1684252834383
6.456284523010254,-13.228221893310547,0.5731077194213867,2023-05-16T16:00:34.414093Z,1684252834413
6.584494590759277,-11.677589416503906,1.789982795715332,2023-05-16T16:00:34.428902Z,1684252834428
7.480849266052246,-12.819290161132812,2.580878257751465,2023-05-16T16:00:34.444577Z,1684252834444
8.64900016784668,-13.050487518310547,2.914102554321289,2023-05-16T16:00:34.463418Z,1684252834463
8.551868438720703,-12.438186645507812,0.683650016784668,2023-05-16T16:00:34.483586Z,1684252834483
8.591863632202148,-9.879196166992188,-0.0025625228881835938,2023-05-16T16:00:34.517827Z,1684252834517
9.38582992553711,-9.358798027038574,0.7637538909912109,2023-05-16T16:00:34.525380Z,1684252834525
10.555587768554688,-9.82196044921875,1.2011795043945312,2023-05-16T16:00:34.543949Z,1684252834543
12.660669326782227,-9.934480667114258,1.5527868270874023,2023-05-16T16:00:34.563376Z,1684252834563
11.78200912475586,-7.1513237953186035,1.515944480895996,2023-05-16T16:00:34.585528Z,1684252834585
10.233149528503418,-5.202951431274414,-0.04784202575683594,2023-05-16T16:00:34.618391Z,1684252834618
8.953885078430176,-4.74385929107666,-0.784876823425293,2023-05-16T16:00:34.625098Z,1684252834625
9.197732925415039,-5.585576057434082,-1.249433994293213,2023-05-16T16:00:34.647370Z,1684252834647
9.916152000427246,-5.642919540405273,-0.8496608734130859,2023-05-16T16:00:34.665710Z,1684252834665
9.313690185546875,-4.552868843078613,-1.1459569931030273,2023-05-16T16:00:34.686180Z,1684252834686
8.458206176757812,-3.894930601119995,-2.0778141021728516,2023-05-16T16:00:34.712600Z,1684252834712
7.174351215362549,-3.5323307514190674,-2.9923620223999023,2023-05-16T16:00:34.726714Z,1684252834726
6.754700660705566,-3.0963785648345947,-3.0698537826538086,2023-05-16T16:00:34.743451Z,1684252834743
7.0077080726623535,-2.422675609588623,-2.4596781730651855,2023-05-16T16:00:34.766912Z,1684252834766
6.648055553436279,-2.539979934692383,-3.0922069549560547,2023-05-16T16:00:34.785974Z,1684252834785
5.490077972412109,-2.2054667472839355,-4.12617301940918,2023-05-16T16:00:34.816027Z,1684252834815
4.795963764190674,-1.741532802581787,-3.740283489227295,2023-05-16T16:00:34.832049Z,1684252834831
4.333634853363037,-1.4595904350280762,-2.7264857292175293,2023-05-16T16:00:34.845258Z,1684252834845
4.149721622467041,-1.2020998001098633,-2.8448572158813477,2023-05-16T16:00:34.865342Z,1684252834865
3.6250877380371094,-1.759228229522705,-3.348595142364502,2023-05-16T16:00:34.886332Z,1684252834886
3.9152133464813232,-2.4011735916137695,-3.943997383117676,2023-05-16T16:00:34.919694Z,1684252834919
5.450911045074463,-1.6958847045898438,-3.880617141723633,2023-05-16T16:00:34.926269Z,1684252834926
6.734194278717041,-1.1683077812194824,-3.692502021789551,2023-05-16T16:00:34.948075Z,1684252834948
7.616827011108398,-1.8319416046142578,-4.651134490966797,2023-05-16T16:00:34.965988Z,1684252834965
7.528238773345947,-1.7867164611816406,-5.44977331161499,2023-05-16T16:00:34.986069Z,1684252834986
6.3018693923950195,-2.241473913192749,-5.765598297119141,2023-05-16T16:00:35.018494Z,1684252835018
9.73562240600586,-2.9543187618255615,-5.291521072387695,2023-05-16T16:00:35.026418Z,1684252835026
12.905370712280273,-2.475982189178467,-7.8090949058532715,2023-05-16T16:00:35.051082Z,1684252835050
15.727598190307617,-0.9090120792388916,-11.700485229492188,2023-05-16T16:00:35.065322Z,1684252835065
17.094009399414062,-2.27474308013916,-11.877837181091309,2023-05-16T16:00:35.085835Z,1684252835085
20.176179885864258,-5.636042594909668,-12.284080505371094,2023-05-16T16:00:35.113921Z,1684252835113
24.931894302368164,-7.3576483726501465,-14.892822265625,2023-05-16T16:00:35.125282Z,1684252835125
29.83770179748535,-9.813979148864746,-18.957740783691406,2023-05-16T16:00:35.144257Z,1684252835144
34.86606216430664,-18.051349639892578,-21.312644958496094,2023-05-16T16:00:35.165071Z,1684252835164
37.20587921142578,-30.791582107543945,-21.629776000976562,2023-05-16T16:00:35.186950Z,1684252835186
35.308807373046875,-46.493980407714844,-19.46562385559082,2023-05-16T16:00:35.214570Z,1684252835214
31.28250503540039,-58.91994094848633,-15.425209045410156,2023-05-16T16:00:35.230127Z,1684252835230
26.71364974975586,-71.29861450195312,-13.92170524597168,2023-05-16T16:00:35.246130Z,1684252835246
23.597293853759766,-77.59217834472656,-11.625530242919922,2023-05-16T16:00:35.265452Z,1684252835265
18.81650733947754,-81.65673065185547,-8.595428466796875,2023-05-16T16:00:35.287887Z,1684252835287
12.624999046325684,-75.98641967773438,-13.604347229003906,2023-05-16T16:00:35.315577Z,1684252835315
9.521897315979004,-67.70919036865234,-15.355010986328125,2023-05-16T16:00:35.326464Z,1684252835326
9.786247253417969,-59.66877746582031,-14.362749099731445,2023-05-16T16:00:35.346738Z,1684252835346
13.468795776367188,-57.19009780883789,-13.586069107055664,2023-05-16T16:00:35.365972Z,1684252835365
15.8453369140625,-48.61020278930664,-10.031110763549805,2023-05-16T16:00:35.387833Z,1684252835387
14.45379638671875,-42.16869354248047,-7.694991111755371,2023-05-16T16:00:35.417388Z,1684252835417
9.924453735351562,-38.277530670166016,-9.541947364807129,2023-05-16T16:00:35.424905Z,1684252835424
6.833902835845947,-35.87831115722656,-9.470560073852539,2023-05-16T16:00:35.450164Z,1684252835450
3.7252840995788574,-30.02667236328125,-6.213833808898926,2023-05-16T16:00:35.467180Z,1684252835467
1.5906771421432495,-25.869064331054688,-4.121398448944092,2023-05-16T16:00:35.487006Z,1684252835486
-0.18904173374176025,-22.176645278930664,-2.894221782684326,2023-05-16T16:00:35.514642Z,1684252835514
-0.38939452171325684,-20.27863121032715,-3.1490368843078613,2023-05-16T16:00:35.531197Z,1684252835531
-1.091230869293213,-20.01909065246582,-2.158529758453369,2023-05-16T16:00:35.545080Z,1684252835545
-0.5610206127166748,-18.524179458618164,-1.1674885749816895,2023-05-16T16:00:35.566255Z,1684252835566
-1.807490587234497,-14.918210983276367,-0.2574949264526367,2023-05-16T16:00:35.587400Z,1684252835587
-2.6951706409454346,-13.405592918395996,-0.5885448455810547,2023-05-16T16:00:35.614788Z,1684252835614
-5.098021507263184,-12.82323932647705,-1.3893413543701172,2023-05-16T16:00:35.632090Z,1684252835632
-5.645198822021484,-11.890127182006836,-2.997559070587158,2023-05-16T16:00:35.646741Z,1684252835646
-5.4700822830200195,-9.098201751708984,-1.3205432891845703,2023-05-16T16:00:35.666420Z,1684252835666
-6.2834601402282715,-7.133602142333984,-0.742952823638916,2023-05-16T16:00:35.688699Z,1684252835688
-5.204697608947754,-6.086821556091309,-1.7999873161315918,2023-05-16T16:00:35.714260Z,1684252835714
-2.9901857376098633,-5.1892242431640625,-4.349006652832031,2023-05-16T16:00:35.726717Z,1684252835726
-3.479825019836426,-4.996471405029297,-5.207427978515625,2023-05-16T16:00:35.745295Z,1684252835745
-6.079291343688965,-5.202478885650635,-4.066912651062012,2023-05-16T16:00:35.766452Z,1684252835766
-6.734107494354248,-5.273469924926758,-1.667262077331543,2023-05-16T16:00:35.787032Z,1684252835786
2.7263731956481934,-4.725285053253174,-2.705362319946289,2023-05-16T16:00:35.809115Z,1684252835809
1.3581547737121582,-6.633861541748047,-0.026296615600585938,2023-05-16T16:00:35.827889Z,1684252835827
0.8843202590942383,-6.457147598266602,2.0090513229370117,2023-05-16T16:00:35.845419Z,1684252835845
1.2020511627197266,-4.442132472991943,2.0682449340820312,2023-05-16T16:00:35.867161Z,1684252835867
1.0375503301620483,-2.301664352416992,4.061454772949219,2023-05-16T16:00:35.887609Z,1684252835887
-0.7834564447402954,-2.7144811153411865,5.356095314025879,2023-05-16T16:00:35.914396Z,1684252835914
-1.2469124794006348,-4.632190704345703,4.911459922790527,2023-05-16T16:00:35.925607Z,1684252835925
0.236047625541687,-4.857785701751709,5.316507339477539,2023-05-16T16:00:35.945379Z,1684252835945
-1.5463371276855469,-4.208774089813232,4.843869209289551,2023-05-16T16:00:35.965504Z,1684252835965
-4.417008399963379,-5.023735046386719,5.071530342102051,2023-05-16T16:00:35.987211Z,1684252835987
-4.364263534545898,-7.450489521026611,4.965118408203125,2023-05-16T16:00:36.016606Z,1684252836016
-1.6395652294158936,-9.750982284545898,5.097883224487305,2023-05-16T16:00:36.029410Z,1684252836029
1.0238196849822998,-12.050918579101562,5.16428279876709,2023-05-16T16:00:36.045921Z,1684252836045
3.447114944458008,-13.631356239318848,5.329007148742676,2023-05-16T16:00:36.067476Z,1684252836067
4.724551677703857,-14.814794540405273,4.388683319091797,2023-05-16T16:00:36.088308Z,1684252836088
5.654051780700684,-15.668706893920898,3.7211246490478516,2023-05-16T16:00:36.115281Z,1684252836115
7.062781810760498,-16.081310272216797,2.569798469543457,2023-05-16T16:00:36.127605Z,1684252836127
8.439802169799805,-15.490060806274414,2.36221981048584,2023-05-16T16:00:36.147062Z,1684252836147
9.315446853637695,-14.24610710144043,1.6190710067749023,2023-05-16T16:00:36.167860Z,1684252836167
8.755289077758789,-12.921483993530273,1.3978376388549805,2023-05-16T16:00:36.188673Z,1684252836188
9.634349822998047,-12.287940979003906,1.5572385787963867,2023-05-16T16:00:36.215730Z,1684252836215
12.811592102050781,-12.344280242919922,1.9146900177001953,2023-05-16T16:00:36.228633Z,1684252836228
12.02530288696289,-10.97044849395752,-1.9719481468200684,2023-05-16T16:00:36.245806Z,1684252836245
8.920769691467285,-10.193814277648926,-1.2373123168945312,2023-05-16T16:00:36.265796Z,1684252836265
11.225946426391602,-9.766874313354492,-0.6774635314941406,2023-05-16T16:00:36.289Z,1684252836288
11.734173774719238,-8.220990180969238,-0.7581539154052734,2023-05-16T16:00:36.314925Z,1684252836314
12.200054168701172,-8.708307266235352,-0.8321943283081055,2023-05-16T16:00:36.330081Z,1684252836330
11.060131072998047,-9.041556358337402,-0.8415393829345703,2023-05-16T16:00:36.346100Z,1684252836345
10.399739265441895,-9.365524291992188,-0.8733072280883789,2023-05-16T16:00:36.365740Z,1684252836365
10.100483894348145,-9.080911636352539,-1.549015998840332,2023-05-16T16:00:36.387580Z,1684252836387
9.212606430053711,-7.193624496459961,-1.857438564300537,2023-05-16T16:00:36.413640Z,1684252836413
7.505634307861328,-6.949710845947266,-2.622157573699951,2023-05-16T16:00:36.427389Z,1684252836427
6.8495683670043945,-7.672435760498047,-2.901660442352295,2023-05-16T16:00:36.447268Z,1684252836447
7.238941669464111,-8.115043640136719,-4.101901054382324,2023-05-16T16:00:36.465881Z,1684252836465
6.429383277893066,-6.849541187286377,-5.514913558959961,2023-05-16T16:00:36.486306Z,1684252836486
6.570347785949707,-6.307604789733887,-6.051347732543945,2023-05-16T16:00:36.515563Z,1684252836515
7.678679943084717,-8.00515079498291,-5.078249454498291,2023-05-16T16:00:36.527806Z,1684252836527
9.562799453735352,-7.760350704193115,-4.977058410644531,2023-05-16T16:00:36.546369Z,1684252836546
10.838678359985352,-5.754971981048584,-5.177835464477539,2023-05-16T16:00:36.567928Z,1684252836567
8.655807495117188,-5.043477535247803,-5.51772403717041,2023-05-16T16:00:36.588054Z,1684252836588
8.316070556640625,-4.688304424285889,-5.351683616638184,2023-05-16T16:00:36.618219Z,1684252836618
8.802123069763184,-3.297943592071533,-6.53231143951416,2023-05-16T16:00:36.625959Z,1684252836625
10.209684371948242,-2.919593572616577,-6.596277713775635,2023-05-16T16:00:36.647664Z,1684252836647
9.528326988220215,-1.4232542514801025,-5.758437156677246,2023-05-16T16:00:36.666353Z,1684252836666
8.316831588745117,-1.7560110092163086,-5.190282344818115,2023-05-16T16:00:36.705086Z,1684252836704
6.935593128204346,-1.6241493225097656,-4.584866046905518,2023-05-16T16:00:36.713140Z,1684252836713
5.092630386352539,0.46292591094970703,-4.207427024841309,2023-05-16T16:00:36.726090Z,1684252836726
3.0923733711242676,1.5032097101211548,-5.073826789855957,2023-05-16T16:00:36.748258Z,1684252836748
2.163637638092041,1.1159377098083496,-6.327672004699707,2023-05-16T16:00:36.766523Z,1684252836766
2.249838352203369,1.4698251485824585,-6.750007152557373,2023-05-16T16:00:36.803409Z,1684252836803
4.091058731079102,1.330488920211792,-6.658872604370117,2023-05-16T16:00:36.810974Z,1684252836810
7.356422424316406,-0.45212721824645996,-6.8615593910217285,2023-05-16T16:00:36.826721Z,1684252836826
8.502168655395508,-1.262178897857666,-7.193066120147705,2023-05-16T16:00:36.848192Z,1684252836848
8.876250267028809,-1.2849888801574707,-8.395818710327148,2023-05-16T16:00:36.866465Z,1684252836866
12.294090270996094,-1.8962616920471191,-10.258872985839844,2023-05-16T16:00:36.906748Z,1684252836906
15.480867385864258,-2.9886460304260254,-12.686986923217773,2023-05-16T16:00:36.910551Z,1684252836910
17.792984008789062,-3.599799156188965,-14.43384075164795,2023-05-16T16:00:36.926820Z,1684252836926
19.26059913635254,-5.573371887207031,-16.17547607421875,2023-05-16T16:00:36.946703Z,1684252836946
21.9074649810791,-9.521604537963867,-17.455286026000977,2023-05-16T16:00:36.968233Z,1684252836968
24.89629364013672,-15.392513275146484,-20.44626235961914,2023-05-16T16:00:36.987213Z,1684252836987
28.34899139404297,-22.0777645111084,-23.167591094970703,2023-05-16T16:00:37.018774Z,1684252837018
29.579151153564453,-31.386188507080078,-24.41237449645996,2023-05-16T16:00:37.026451Z,1684252837026
29.602428436279297,-40.831180572509766,-25.463970184326172,2023-05-16T16:00:37.049678Z,1684252837049
30.617523193359375,-49.31574630737305,-23.515464782714844,2023-05-16T16:00:37.066774Z,1684252837066
32.17273712158203,-59.99097442626953,-18.64870262145996,2023-05-16T16:00:37.089380Z,1684252837089
31.338134765625,-64.66929626464844,-13.130880355834961,2023-05-16T16:00:37.114282Z,1684252837114
28.271434783935547,-63.107940673828125,-13.350132942199707,2023-05-16T16:00:37.128278Z,1684252837128
24.865434646606445,-62.96383285522461,-14.32560920715332,2023-05-16T16:00:37.146901Z,1684252837146
24.09228515625,-58.362396240234375,-15.441612243652344,2023-05-16T16:00:37.168777Z,1684252837168
24.392772674560547,-51.63037109375,-15.921197891235352,2023-05-16T16:00:37.201386Z,1684252837201
24.60811424255371,-46.8072395324707,-18.181283950805664,2023-05-16T16:00:37.208319Z,1684252837208
26.174121856689453,-43.871429443359375,-20.252540588378906,2023-05-16T16:00:37.226943Z,1684252837226
29.37981605529785,-41.691741943359375,-14.327279090881348,2023-05-16T16:00:37.248250Z,1684252837248
27.277690887451172,-37.17088317871094,-11.973586082458496,2023-05-16T16:00:37.266860Z,1684252837266
21.869945526123047,-29.082565307617188,-11.5857515335083,2023-05-16T16:00:37.290239Z,1684252837290
18.156734466552734,-28.176509857177734,-10.431341171264648,2023-05-16T16:00:37.316748Z,1684252837316
13.668136596679688,-27.450498580932617,-8.483482360839844,2023-05-16T16:00:37.328557Z,1684252837328
9.072112083435059,-25.624370574951172,-5.451196670532227,2023-05-16T16:00:37.347442Z,1684252837347
7.822487831115723,-21.26498794555664,-3.14105224609375,2023-05-16T16:00:37.367059Z,1684252837366
9.494301795959473,-17.515146255493164,-2.0620436668395996,2023-05-16T16:00:37.402549Z,1684252837402
8.808037757873535,-17.227964401245117,-2.0640358924865723,2023-05-16T16:00:37.407613Z,1684252837407
5.426252841949463,-15.748263359069824,0.41024017333984375,2023-05-16T16:00:37.427679Z,1684252837427
2.3441152572631836,-13.229313850402832,1.790938377380371,2023-05-16T16:00:37.447334Z,1684252837447
0.2747245728969574,-10.782987594604492,5.259787559509277,2023-05-16T16:00:37.467374Z,1684252837467
0.1732138991355896,-9.187856674194336,1.675436019897461,2023-05-16T16:00:37.504606Z,1684252837504
-2.1880435943603516,-8.288366317749023,-0.4128580093383789,2023-05-16T16:00:37.507920Z,1684252837507
-4.439497470855713,-7.311659812927246,-0.1195821762084961,2023-05-16T16:00:37.527873Z,1684252837527
-3.2751660346984863,-6.52630615234375,0.412628173828125,2023-05-16T16:00:37.549206Z,1684252837549
-1.9844613075256348,-6.370083808898926,5.3007001876831055,2023-05-16T16:00:37.569697Z,1684252837569
0.09148123860359192,-7.598123550415039,2.853933334350586,2023-05-16T16:00:37.606274Z,1684252837606
0.8064342737197876,-5.670975208282471,0.026422500610351562,2023-05-16T16:00:37.614586Z,1684252837614
2.162750244140625,-7.629654884338379,11.224315643310547,2023-05-16T16:00:37.628756Z,1684252837628
3.724356174468994,-8.752473831176758,3.9441633224487305,2023-05-16T16:00:37.647833Z,1684252837647
0.3067784905433655,-9.292257308959961,2.7515392303466797,2023-05-16T16:00:37.668479Z,1684252837668
-50.45899200439453,-18.503910064697266,31.13652992248535,2023-05-16T16:00:37.689416Z,1684252837689
11.075197219848633,-8.841443061828613,1.5049867630004883,2023-05-16T16:00:37.708942Z,1684252837708
11.544280052185059,-2.161559581756592,10.601917266845703,2023-05-16T16:00:37.728589Z,1684252837728
16.50307846069336,-4.118120193481445,0.7127079963684082,2023-05-16T16:00:37.748726Z,1684252837748
37.11247634887695,-8.35886001586914,-26.760026931762695,2023-05-16T16:00:37.769061Z,1684252837769
-6.646241188049316,-4.887465476989746,3.407792568206787,2023-05-16T16:00:37.789115Z,1684252837789
-11.026939392089844,-2.0460805892944336,3.7020702362060547,2023-05-16T16:00:37.809690Z,1684252837809
-11.55688190460205,-1.407982349395752,3.384369373321533,2023-05-16T16:00:37.829Z,1684252837828
-7.099998474121094,0.9338531494140625,-23.52573585510254,2023-05-16T16:00:37.847948Z,1684252837847
-6.803864479064941,5.337784290313721,-9.807406425476074,2023-05-16T16:00:37.868538Z,1684252837868
-4.9398651123046875,6.084167003631592,9.352986335754395,2023-05-16T16:00:37.888689Z,1684252837888
2.0945920944213867,3.416867733001709,-8.153951644897461,2023-05-16T16:00:37.908536Z,1684252837908
0.20093178749084473,-0.43723011016845703,-4.416525840759277,2023-05-16T16:00:37.928908Z,1684252837928
-0.1849977970123291,-2.4646847248077393,-2.1124439239501953,2023-05-16T16:00:37.948643Z,1684252837948
0.5728826522827148,-1.0540657043457031,0.7887983322143555,2023-05-16T16:00:37.968460Z,1684252837968
-1.2360494136810303,3.3931446075439453,-2.1388912200927734,2023-05-16T16:00:37.988518Z,1684252837988
-2.345210075378418,1.819563388824463,-0.7360968589782715,2023-05-16T16:00:38.008356Z,1684252838008
-2.0213396549224854,-1.7392942905426025,1.0359525680541992,2023-05-16T16:00:38.028012Z,1684252838027
-2.4972023963928223,-3.312115430831909,3.488168716430664,2023-05-16T16:00:38.049133Z,1684252838049
-2.6565518379211426,-1.3189091682434082,0.5730700492858887,2023-05-16T16:00:38.068622Z,1684252838068
-2.359856367111206,-0.7986645698547363,-0.5281705856323242,2023-05-16T16:00:38.088760Z,1684252838088
-0.20046472549438477,-1.6667110919952393,-1.8612494468688965,2023-05-16T16:00:38.108870Z,1684252838108
3.0720748901367188,-1.477696180343628,-0.6543974876403809,2023-05-16T16:00:38.128966Z,1684252838128
3.2580456733703613,-2.2483975887298584,-0.4935784339904785,2023-05-16T16:00:38.148813Z,1684252838148
0.9224739074707031,-4.963804244995117,-1.4544057846069336,2023-05-16T16:00:38.170605Z,1684252838170
-0.4307687282562256,-3.0689358711242676,-0.2615480422973633,2023-05-16T16:00:38.189688Z,1684252838189
-2.7989554405212402,-1.8260056972503662,0.28036022186279297,2023-05-16T16:00:38.209600Z,1684252838209
-4.178712844848633,-3.681103229522705,2.3541173934936523,2023-05-16T16:00:38.229604Z,1684252838229
-4.982132434844971,-6.263698577880859,0.043112754821777344,2023-05-16T16:00:38.249881Z,1684252838249
-3.455836772918701,-5.0682806968688965,-2.0053906440734863,2023-05-16T16:00:38.269857Z,1684252838269
-2.2096481323242188,0.06319022178649902,-0.3092794418334961,2023-05-16T16:00:38.289533Z,1684252838289
2.4333107471466064,-2.001981258392334,-3.363529682159424,2023-05-16T16:00:38.310528Z,1684252838310
3.4500272274017334,-1.8465781211853027,-6.051855087280273,2023-05-16T16:00:38.328235Z,1684252838328
1.9419682025909424,-0.5451977252960205,0.6849641799926758,2023-05-16T16:00:38.348586Z,1684252838348
1.3395557403564453,1.7360389232635498,7.911515235900879,2023-05-16T16:00:38.369763Z,1684252838369
4.056236267089844,1.9257687330245972,6.9091901779174805,2023-05-16T16:00:38.390827Z,1684252838390
3.863539695739746,1.3432379961013794,1.495692253112793,2023-05-16T16:00:38.410718Z,1684252838410
2.852541446685791,1.3857537508010864,1.9831342697143555,2023-05-16T16:00:38.430049Z,1684252838430
0.3557947278022766,1.7515865564346313,0.9974117279052734,2023-05-16T16:00:38.450154Z,1684252838450
-3.817011833190918,-0.5076443552970886,-1.1622753143310547,2023-05-16T16:00:38.469918Z,1684252838469
-5.048564910888672,-0.42364197969436646,-1.6963143348693848,2023-05-16T16:00:38.490495Z,1684252838490
-2.55987811088562,-0.6301016807556152,2.473888397216797,2023-05-16T16:00:38.509375Z,1684252838509
-0.4448741674423218,-0.38701993227005005,4.948094367980957,2023-05-16T16:00:38.530561Z,1684252838530
1.3553279638290405,0.5672534108161926,3.589334487915039,2023-05-16T16:00:38.550474Z,1684252838550
0.43011772632598877,0.15143316984176636,2.548816680908203,2023-05-16T16:00:38.570468Z,1684252838570
0.5138858556747437,0.6082446575164795,2.2663354873657227,2023-05-16T16:00:38.590433Z,1684252838590
0.7364097833633423,1.6578127145767212,-0.15513896942138672,2023-05-16T16:00:38.614862Z,1684252838614
1.2680937051773071,2.328336000442505,0.36223316192626953,2023-05-16T16:00:38.629561Z,1684252838629
1.790276288986206,0.8097630143165588,0.5223751068115234,2023-05-16T16:00:38.649974Z,1684252838649
0.8280264139175415,-0.30404362082481384,-1.362717628479004,2023-05-16T16:00:38.669582Z,1684252838669
-0.6521047353744507,0.5068165063858032,-0.5594644546508789,2023-05-16T16:00:38.689834Z,1684252838689
-0.6079483032226562,-0.2009098380804062,4.533618927001953,2023-05-16T16:00:38.708873Z,1684252838708
0.2556859850883484,-1.546291470527649,5.978899955749512,2023-05-16T16:00:38.729637Z,1684252838729
1.306902527809143,-0.9093059301376343,1.8203763961791992,2023-05-16T16:00:38.750007Z,1684252838749
-0.5337167978286743,-0.291650652885437,-1.0772924423217773,2023-05-16T16:00:38.769903Z,1684252838769
-2.205298900604248,0.24599142372608185,-0.9907674789428711,2023-05-16T16:00:38.789621Z,1684252838789
-0.8909372091293335,0.03376391530036926,1.1687164306640625,2023-05-16T16:00:38.810233Z,1684252838810
2.708209276199341,-0.26893240213394165,2.615462303161621,2023-05-16T16:00:38.829868Z,1684252838829
1.156241536140442,0.006201386451721191,1.512761116027832,2023-05-16T16:00:38.849371Z,1684252838849
1.2708408832550049,0.1325787603855133,-1.3689823150634766,2023-05-16T16:00:38.869350Z,1684252838869
0.28265777230262756,0.7280082702636719,-1.3257694244384766,2023-05-16T16:00:38.890940Z,1684252838890
-1.1331039667129517,-0.4037725329399109,-0.09027862548828125,2023-05-16T16:00:38.909743Z,1684252838909
-0.6810922026634216,-0.6422080397605896,0.22072505950927734,2023-05-16T16:00:38.930810Z,1684252838930
0.8332628607749939,-0.21276149153709412,0.4403982162475586,2023-05-16T16:00:38.950662Z,1684252838950
0.8610603213310242,0.19357812404632568,1.011002540588379,2023-05-16T16:00:38.970889Z,1684252838970
-0.6092361211776733,0.1340692639350891,1.4775972366333008,2023-05-16T16:00:38.992806Z,1684252838992
-0.39101389050483704,-0.4321998357772827,0.7984418869018555,2023-05-16T16:00:39.010577Z,1684252839010
-0.34393230080604553,-0.6401423811912537,0.2782106399536133,2023-05-16T16:00:39.030718Z,1684252839030
-0.43292754888534546,0.03877244517207146,-0.7998361587524414,2023-05-16T16:00:39.050156Z,1684252839050
-0.48706871271133423,0.1672651618719101,-0.8415517807006836,2023-05-16T16:00:39.070802Z,1684252839070
-0.6632972359657288,-0.15705905854701996,0.47299671173095703,2023-05-16T16:00:39.093747Z,1684252839093
-1.186953067779541,0.26031389832496643,0.981135368347168,2023-05-16T16:00:39.110927Z,1684252839110
0.31119775772094727,1.1962311267852783,-0.7850131988525391,2023-05-16T16:00:39.130804Z,1684252839130
0.7612093687057495,0.2912513315677643,-0.7034235000610352,2023-05-16T16:00:39.151160Z,1684252839151
-0.393621563911438,-0.9839498996734619,-0.037403106689453125,2023-05-16T16:00:39.172953Z,1684252839172
-0.44042080640792847,-1.8583815097808838,0.5874204635620117,2023-05-16T16:00:39.197076Z,1684252839196
-0.5023106932640076,-1.2808095216751099,0.9367170333862305,2023-05-16T16:00:39.211685Z,1684252839211
